relative_id,timestamp,RU_IMU9_Acc_X,RU_IMU9_Acc_Y,RU_IMU9_Acc_Z,RU_IMU9_Gyro_X,RU_IMU9_Gyro_Y,RU_IMU9_Gyro_Z,RU_IMU9_Magn_X,RU_IMU9_Magn_Y,RU_IMU9_Magn_Z,RF_IMU9_Acc_X,RF_IMU9_Acc_Y,RF_IMU9_Acc_Z,RF_IMU9_Gyro_X,RF_IMU9_Gyro_Y,RF_IMU9_Gyro_Z,RF_IMU9_Magn_X,RF_IMU9_Magn_Y,RF_IMU9_Magn_Z
0,1726865370.8277378,9.664956092834473,-0.21775463223457336,0.4953319728374481,1.0499999523162842,-4.130000114440918,-0.49000000953674316,59.38053894042969,-8.159259796142578,51.00592803955078,9.83485221862793,-1.366350531578064,0.7729093432426453,-0.699999988079071,-2.1700000762939453,-1.0499999523162842,19.650001525878906,-84.45000457763672,-27.30000114440918
1,1726865370.8533788,9.72238540649414,-0.27997025847435,0.5360113978385925,1.190000057220459,-4.199999809265137,-0.6299999952316284,56.61435317993164,-6.117510795593262,49.423789978027344,9.813316345214844,-1.2132043838500977,0.7729093432426453,0.7699999809265137,-1.9600000381469727,-1.3300000429153442,20.100000381469727,-84.60000610351562,-27.450000762939453
2,1726865370.87902,9.71520709991455,-0.32543548941612244,0.5599405169487,2.0299999713897705,-4.480000019073486,-0.699999988079071,57.49941635131836,-7.846236705780029,50.37308883666992,9.81810188293457,-1.0911661386489868,0.7537660598754883,0.699999988079071,-2.0299999713897705,-1.6100000143051147,18.900001525878906,-85.20000457763672,-25.350000381469727
3,1726865370.904661,9.703242301940918,-0.181861013174057,0.5599405169487,2.309999942779541,-4.550000190734863,-0.5600000023841858,60.951622009277344,-8.939558029174805,52.39912796020508,9.775029182434082,-1.1174880266189575,0.7848738431930542,-0.2800000011920929,-2.309999942779541,-1.6800000667572021,19.5,-84.30000305175781,-26.700000762939453
4,1726865370.9027998,9.686491966247559,-0.26561281085014343,0.648478090763092,1.9600000381469727,-4.199999809265137,-0.49000000953674316,55.305320739746094,-5.920393943786621,47.364715576171875,9.760672569274902,-1.201239824295044,0.8351249098777771,-1.190000057220459,-2.380000114440918,-1.4700000286102295,19.650001525878906,-85.20000457763672,-28.200000762939453
5,1726865370.9284408,9.734350204467773,-0.27997025847435,0.6054057478904724,2.870000123977661,-4.199999809265137,-0.9800000190734863,59.19255065917969,-8.399836540222168,50.4037971496582,9.8444242477417,-1.2490980625152588,0.765730619430542,-1.2599999904632568,-2.240000009536743,-1.2599999904632568,21.30000114440918,-83.70000457763672,-27.750001907348633
6,1726865370.954082,9.803744316101074,-0.22732627391815186,0.5647262930870056,4.059999942779541,-4.059999942779541,-1.5399999618530273,57.54697036743164,-7.075653553009033,49.107513427734375,9.791779518127441,-1.275420069694519,0.7418015003204346,-0.9800000190734863,-2.0299999713897705,-1.3300000429153442,21.30000114440918,-84.1500015258789,-25.200000762939453
7,1726865370.979723,9.693670272827148,-0.1914326548576355,0.5551546812057495,4.480000019073486,-3.9200000762939453,-1.5399999618530273,56.7508544921875,-10.127967834472656,48.43158721923828,9.772636413574219,-1.2203831672668457,0.7776951193809509,-0.49000000953674316,-1.9600000381469727,-1.4700000286102295,21.900001525878906,-85.20000457763672,-27.30000114440918
8,1726865370.9923158,9.686491966247559,-0.16750356554985046,0.5575475692749023,4.269999980926514,-3.7100000381469727,-1.399999976158142,56.7508544921875,-10.127967834472656,48.43158721923828,9.772636413574219,-1.2179901599884033,0.7537660598754883,0.07000000029802322,-1.8899999856948853,-1.5399999618530273,22.200000762939453,-83.25,-27.900001525878906
9,1726865371.0179567,9.693670272827148,-0.14836029708385468,0.5072965025901794,4.059999942779541,-3.2899999618530273,-1.2599999904632568,58.460296630859375,-8.798431396484375,50.8987922668457,9.853995323181152,-1.1868823766708374,0.8016242384910583,0.21000000834465027,-1.8200000524520874,-1.6100000143051147,20.400001525878906,-84.75,-27.30000114440918
10,1726865371.043598,9.724778175354004,-0.1698964685201645,0.6054057478904724,3.7799999713897705,-3.2200000286102295,-1.1200000047683716,58.01542663574219,-7.6941657066345215,48.43398666381836,9.82528018951416,-1.1581674814224243,0.7609447836875916,0.3499999940395355,-1.8200000524520874,-1.75,19.650001525878906,-84.1500015258789,-27.000001907348633
11,1726865371.069239,9.667348861694336,-0.1316099464893341,0.569512128829956,2.799999952316284,-3.2899999618530273,-0.9800000190734863,59.52656936645508,-7.647731781005859,51.51618576049805,9.81810188293457,-1.1820966005325317,0.765730619430542,0.42000001668930054,-2.0999999046325684,-1.75,21.30000114440918,-83.70000457763672,-25.650001525878906
12,1726865371.096427,9.72238540649414,-0.25604116916656494,0.5120823383331299,1.75,-4.619999885559082,-1.3300000429153442,56.38483428955078,-5.807263374328613,49.900882720947266,9.770243644714355,-1.2323477268218994,0.7346227765083313,0.9800000190734863,-2.240000009536743,-1.8200000524520874,21.450000762939453,-84.0,-27.450000762939453
13,1726865371.122068,9.719992637634277,-0.1914326548576355,0.44029510021209717,1.9600000381469727,-4.550000190734863,-1.6100000143051147,57.33454895019531,-8.361729621887207,49.301513671875,9.846817016601562,-1.1438100337982178,0.8088029623031616,1.399999976158142,-2.1700000762939453,-1.8200000524520874,19.650001525878906,-84.45000457763672,-27.150001525878906
14,1726865371.1477091,9.73195743560791,-0.12203831225633621,0.5671192407608032,2.450000047683716,-4.199999809265137,-1.6100000143051147,58.832454681396484,-7.277727127075195,50.464935302734375,9.777422904968262,-1.1988469362258911,0.746587336063385,1.1200000047683716,-2.0999999046325684,-1.8899999856948853,21.150001525878906,-84.60000610351562,-26.55000114440918
15,1726865371.17335,9.698456764221191,-0.12921704351902008,0.6652284264564514,1.4700000286102295,-3.8499999046325684,-1.3300000429153442,56.6652946472168,-6.666352272033691,48.6252326965332,9.784601211547852,-1.1749178171157837,0.7059078812599182,1.190000057220459,-2.1700000762939453,-1.75,19.80000114440918,-83.70000457763672,-28.05000114440918
16,1726865371.186802,9.64581298828125,-0.24886244535446167,0.6700142621994019,1.0499999523162842,-3.990000009536743,-1.190000057220459,58.18072509765625,-6.898799896240234,50.676658630371094,9.815709114074707,-1.1438100337982178,0.7322298884391785,1.0499999523162842,-2.309999942779541,-1.6100000143051147,21.30000114440918,-85.6500015258789,-26.850000381469727
17,1726865371.2124429,9.765458106994629,-0.339792937040329,0.49772489070892334,2.0999999046325684,-4.340000152587891,-1.1200000047683716,56.96963119506836,-11.760613441467285,48.000518798828125,9.887495994567871,-1.0552724599838257,0.7800880670547485,-0.21000000834465027,-1.8200000524520874,-2.0299999713897705,21.450000762939453,-85.95000457763672,-27.30000114440918
18,1726865371.238084,9.708027839660645,-0.3015064299106598,0.45704543590545654,3.7799999713897705,-3.990000009536743,-0.8400000333786011,59.03621292114258,-9.953889846801758,51.11066436767578,9.815709114074707,-1.0983448028564453,0.7561589479446411,-1.2599999904632568,-1.4700000286102295,-2.240000009536743,21.30000114440918,-84.9000015258789,-27.750001907348633
19,1726865371.263725,9.71520709991455,-0.11485958844423294,0.5862624645233154,4.409999847412109,-3.990000009536743,-0.699999988079071,60.230995178222656,-6.9752116203308105,51.350311279296875,9.703242301940918,-1.2203831672668457,0.765730619430542,-1.8200000524520874,-1.8899999856948853,-1.8899999856948853,20.25,-85.5,-26.850000381469727
20,1726865371.2168798,9.674527168273926,-0.059822700917720795,0.6365135312080383,3.2200000286102295,-3.8499999046325684,-0.42000001668930054,58.06766128540039,-7.403388500213623,51.148712158203125,9.775029182434082,-1.3017419576644897,0.825553297996521,-0.9800000190734863,-2.450000047683716,-1.2599999904632568,20.850000381469727,-84.1500015258789,-29.100000381469727
21,1726865371.2425208,9.741528511047363,-0.12203831225633621,0.5934411883354187,1.2599999904632568,-4.199999809265137,-0.21000000834465027,56.69947814941406,-9.858999252319336,48.059051513671875,9.868352890014648,-1.2132043838500977,0.7920525670051575,0.07000000029802322,-2.380000114440918,-1.190000057220459,20.25,-84.0,-27.000001907348633
22,1726865371.268162,9.691277503967285,-0.3134709596633911,0.5503688454627991,0.5600000023841858,-4.96999979019165,-0.7699999809265137,57.994808197021484,-9.779216766357422,50.86823272705078,9.832459449768066,-1.2634555101394653,0.7250511646270752,0.9100000262260437,-1.8899999856948853,-1.6800000667572021,20.100000381469727,-84.45000457763672,-26.400001525878906
23,1726865371.293803,9.696063995361328,-0.33740004897117615,0.5742979645729065,1.9600000381469727,-4.619999885559082,-1.190000057220459,58.644893646240234,-7.238430500030518,51.033905029296875,9.81810188293457,-1.1605603694915771,0.6628355383872986,1.2599999904632568,-1.75,-1.8899999856948853,21.450000762939453,-84.45000457763672,-25.80000114440918
24,1726865371.365625,9.708027839660645,-0.13639576733112335,0.5982270240783691,3.430000066757202,-4.409999847412109,-0.9800000190734863,59.35917282104492,-6.284054279327393,52.31978225708008,9.775029182434082,-1.1629533767700195,0.7441943883895874,0.8400000333786011,-2.0999999046325684,-1.6100000143051147,18.900001525878906,-83.25,-26.400001525878906
25,1726865371.3912659,9.710420608520508,-0.09571632742881775,0.5958341360092163,3.430000066757202,-4.269999980926514,-0.9100000262260437,58.15585708618164,-8.224172592163086,50.30169677734375,9.770243644714355,-1.131845474243164,0.806410014629364,0.21000000834465027,-2.309999942779541,-1.2599999904632568,20.850000381469727,-84.0,-25.200000762939453
26,1726865371.416907,9.724778175354004,-0.1411815732717514,0.5766908526420593,2.799999952316284,-4.619999885559082,-0.6299999952316284,57.64030838012695,-7.615573406219482,49.57191848754883,9.803744316101074,-1.1366313695907593,0.8183745741844177,-0.49000000953674316,-2.0299999713897705,-1.5399999618530273,20.25,-84.30000305175781,-27.600000381469727
27,1726865371.442548,9.710420608520508,-0.2321120798587799,0.48815324902534485,2.5899999141693115,-4.760000228881836,-0.8400000333786011,59.188270568847656,-8.120955467224121,51.434566497802734,9.777422904968262,-1.2155972719192505,0.7489802241325378,-0.07000000029802322,-1.8200000524520874,-2.1700000762939453,20.55000114440918,-84.45000457763672,-27.000001907348633
28,1726865371.381846,9.719992637634277,-0.08853759616613388,0.5240468978881836,2.799999952316284,-4.409999847412109,-0.49000000953674316,57.17185592651367,-6.997060775756836,50.24544143676758,9.751100540161133,-1.2562767267227173,0.7705163955688477,0.9100000262260437,-1.8899999856948853,-1.8899999856948853,20.100000381469727,-84.45000457763672,-25.950000762939453
29,1726865371.407487,9.674527168273926,-0.11964540183544159,0.6317277550697327,1.8899999856948853,-4.059999942779541,-0.49000000953674316,58.10152053833008,-6.3559064865112305,50.63323974609375,9.830066680908203,-1.201239824295044,0.7130866050720215,1.6100000143051147,-2.309999942779541,-1.399999976158142,21.150001525878906,-84.30000305175781,-25.80000114440918
30,1726865371.496753,9.696063995361328,-0.12682412564754486,0.5479759573936462,1.6100000143051147,-4.480000019073486,-0.5600000023841858,61.61748123168945,-9.315510749816895,52.608394622802734,,,,,,,,,
31,1726865371.433128,9.6697416305542,-0.2321120798587799,0.5360113978385925,1.8200000524520874,-4.829999923706055,-0.42000001668930054,58.882080078125,-9.146984100341797,49.99306106567383,9.822887420654297,-1.1174880266189575,0.806410014629364,1.6100000143051147,-2.240000009536743,-1.3300000429153442,21.150001525878906,-82.80000305175781,-28.200000762939453
32,1726865371.458769,9.746315002441406,-0.2010042816400528,0.5455830693244934,2.240000009536743,-4.690000057220459,-0.5600000023841858,56.8288459777832,-7.4712748527526855,50.02349090576172,9.870745658874512,-1.1127022504806519,0.7992312908172607,1.2599999904632568,-1.9600000381469727,-1.6100000143051147,21.150001525878906,-85.20000457763672,-26.850000381469727
33,1726865371.456936,9.71520709991455,-0.1411815732717514,0.5360113978385925,2.6600000858306885,-4.900000095367432,-0.6299999952316284,58.29290008544922,-7.434753894805908,51.702388763427734,9.798958778381348,-1.131845474243164,0.7489802241325378,0.7699999809265137,-2.0299999713897705,-1.6100000143051147,20.55000114440918,-84.30000305175781,-27.600000381469727
34,1726865371.4825768,9.655384063720703,-0.059822700917720795,0.5647262930870056,1.8200000524520874,-4.480000019073486,-0.49000000953674316,56.7060432434082,-3.737717390060425,50.265594482421875,9.856388092041016,-1.1294525861740112,0.7418015003204346,0.5600000023841858,-2.1700000762939453,-1.2599999904632568,20.25,-84.0,-27.450000762939453
35,1726865371.508218,9.743921279907227,-0.2321120798587799,0.5623334050178528,0.9100000262260437,-4.480000019073486,-0.2800000011920929,55.18326950073242,-6.147092342376709,48.727203369140625,9.82528018951416,-1.170132040977478,0.7872667908668518,0.42000001668930054,-2.380000114440918,-1.190000057220459,19.350000381469727,-83.4000015258789,-28.200000762939453
36,1726865371.533859,9.71520709991455,-0.19621846079826355,0.588655412197113,0.9100000262260437,-4.269999980926514,-0.07000000029802322,56.26795196533203,-5.272299766540527,48.734825134277344,9.858781814575195,-1.1581674814224243,0.7729093432426453,0.07000000029802322,-1.9600000381469727,-1.3300000429153442,21.150001525878906,-84.30000305175781,-26.700000762939453
37,1726865371.531652,9.74870777130127,-0.26800569891929626,0.5072965025901794,1.399999976158142,-4.480000019073486,-0.49000000953674316,59.31974411010742,-7.892273902893066,50.35273361206055,9.777422904968262,-1.1462029218673706,0.6939433217048645,-0.49000000953674316,-1.8200000524520874,-1.5399999618530273,19.650001525878906,-85.05000305175781,-27.750001907348633
38,1726865371.557293,9.676919937133789,-0.2416837215423584,0.4809745252132416,2.5199999809265137,-4.829999923706055,-0.8400000333786011,56.34626770019531,-6.85573673248291,50.276023864746094,9.75588607788086,-1.2036327123641968,0.7729093432426453,-0.49000000953674316,-2.1700000762939453,-1.2599999904632568,20.25,-84.1500015258789,-26.850000381469727
39,1726865371.5829341,9.746315002441406,-0.18425391614437103,0.5025107264518738,3.009999990463257,-4.619999885559082,-0.7699999809265137,56.34626770019531,-6.85573673248291,50.276023864746094,9.798958778381348,-1.1557745933532715,0.7848738431930542,-0.07000000029802322,-2.309999942779541,-0.8400000333786011,18.900001525878906,-84.45000457763672,-27.750001907348633
40,1726865371.608575,9.684099197387695,-0.12443122267723083,0.5575475692749023,2.870000123977661,-4.480000019073486,-0.699999988079071,59.66318130493164,-7.138186931610107,51.74578094482422,9.846817016601562,-1.1557745933532715,0.7753022313117981,0.14000000059604645,-2.1700000762939453,-0.9100000262260437,21.150001525878906,-84.30000305175781,-25.950000762939453
41,1726865371.6664448,9.696063995361328,-0.16750356554985046,0.5647262930870056,2.450000047683716,-4.619999885559082,-0.5600000023841858,58.94419860839844,-8.093554496765137,50.3195686340332,9.820494651794434,-1.1557745933532715,0.7489802241325378,0.2800000011920929,-2.0999999046325684,-1.4700000286102295,20.400001525878906,-83.70000457763672,-26.55000114440918
42,1726865371.6920857,9.727170944213867,-0.15793193876743317,0.588655412197113,1.9600000381469727,-4.900000095367432,-0.7699999809265137,55.808380126953125,-9.451681137084961,47.296112060546875,9.798958778381348,-1.1677391529083252,0.7250511646270752,0.14000000059604645,-2.1700000762939453,-1.6100000143051147,20.55000114440918,-84.30000305175781,-27.30000114440918
43,1726865371.717727,9.743921279907227,-0.13639576733112335,0.5551546812057495,1.75,-4.480000019073486,-0.8400000333786011,60.66263198852539,-7.0419087409973145,51.896339416503906,9.803744316101074,-1.1988469362258911,0.679585874080658,0.42000001668930054,-2.0999999046325684,-1.6100000143051147,20.55000114440918,-84.75,-27.000001907348633
44,1726865371.743368,9.686491966247559,-0.13878867030143738,0.5360113978385925,1.75,-4.409999847412109,-0.8400000333786011,56.52954864501953,-6.616151332855225,50.737823486328125,9.765458106994629,-1.170132040977478,0.7753022313117981,0.14000000059604645,-2.0299999713897705,-1.4700000286102295,20.400001525878906,-85.80000305175781,-26.850000381469727
45,1726865371.6970348,9.703242301940918,-0.11725249886512756,0.5072965025901794,0.9800000190734863,-4.269999980926514,-0.6299999952316284,60.027992248535156,-8.259305000305176,51.82497024536133,9.767850875854492,-1.1533817052841187,0.7896596789360046,0.21000000834465027,-2.240000009536743,-1.3300000429153442,20.55000114440918,-84.30000305175781,-26.55000114440918
46,1726865371.7226758,9.724778175354004,-0.23929080367088318,0.45704543590545654,0.9100000262260437,-4.409999847412109,-0.7699999809265137,57.72465133666992,-7.877602577209473,50.92676544189453,9.839637756347656,-1.1198810338974,0.7729093432426453,0.14000000059604645,-2.1700000762939453,-1.3300000429153442,20.850000381469727,-84.30000305175781,-27.000001907348633
47,1726865371.748317,9.775029182434082,-0.2416837215423584,0.45943835377693176,2.0299999713897705,-4.550000190734863,-0.8400000333786011,57.69168472290039,-7.884541988372803,49.944454193115234,9.82528018951416,-1.1007376909255981,0.6987291574478149,-0.21000000834465027,-1.9600000381469727,-1.5399999618530273,20.850000381469727,-83.4000015258789,-26.850000381469727
48,1726865371.773958,9.676919937133789,-0.1722893863916397,0.5575475692749023,2.309999942779541,-4.480000019073486,-0.5600000023841858,56.903343200683594,-8.01516056060791,49.92658233642578,9.806137084960938,-1.0863802433013916,0.6652284264564514,-1.1200000047683716,-2.240000009536743,-1.399999976158142,21.150001525878906,-84.30000305175781,-27.30000114440918
49,1726865371.771906,9.657776832580566,-0.17468228936195374,0.5072965025901794,1.6800000667572021,-4.269999980926514,-0.42000001668930054,56.57667541503906,-6.125441074371338,48.3011474609375,9.846817016601562,-1.1940611600875854,0.7489802241325378,-1.75,-2.240000009536743,-1.1200000047683716,20.850000381469727,-83.55000305175781,-27.000001907348633
50,1726865371.7975469,9.712814331054688,-0.26561281085014343,0.5312256217002869,1.5399999618530273,-4.550000190734863,-0.49000000953674316,56.63954162597656,-9.032267570495605,49.748046875,9.846817016601562,-1.1892752647399902,0.8040171265602112,-1.0499999523162842,-2.0999999046325684,-1.3300000429153442,20.55000114440918,-84.75,-26.55000114440918
51,1726865371.823188,9.688884735107422,-0.23929080367088318,0.5072965025901794,2.0999999046325684,-4.829999923706055,-0.3499999940395355,56.91836166381836,-6.971643447875977,48.849788665771484,9.801351547241211,-1.237133502960205,0.7729093432426453,-0.49000000953674316,-2.0999999046325684,-1.5399999618530273,21.75,-84.9000015258789,-28.200000762939453
52,1726865371.848829,9.708027839660645,-0.12203831225633621,0.5144752264022827,2.870000123977661,-4.480000019073486,-0.3499999940395355,58.314697265625,-9.030086517333984,51.55963134765625,9.736742973327637,-1.2203831672668457,0.7250511646270752,-0.07000000029802322,-2.0999999046325684,-1.399999976158142,21.600000381469727,-83.4000015258789,-25.650001525878906
53,1726865371.847262,9.758278846740723,-0.06221561133861542,0.4953319728374481,2.1700000762939453,-4.340000152587891,-0.3499999940395355,59.77064895629883,-7.6751322746276855,52.63117980957031,9.770243644714355,-1.1629533767700195,0.727444052696228,-0.2800000011920929,-2.240000009536743,-1.0499999523162842,21.450000762939453,-84.9000015258789,-27.750001907348633
54,1726865371.8729029,9.7391357421875,-0.12203831225633621,0.49054616689682007,1.1200000047683716,-4.199999809265137,-0.21000000834465027,57.215023040771484,-10.467598915100098,48.7888298034668,9.794173240661621,-1.2610626220703125,0.746587336063385,-0.2800000011920929,-2.0999999046325684,-0.9800000190734863,21.600000381469727,-84.30000305175781,-26.700000762939453
55,1726865371.898544,9.674527168273926,-0.2632198929786682,0.5120823383331299,0.699999988079071,-4.550000190734863,-0.42000001668930054,57.54401397705078,-5.476356029510498,49.81159210205078,9.822887420654297,-1.1605603694915771,0.7202653288841248,0.14000000059604645,-2.1700000762939453,-1.190000057220459,21.600000381469727,-84.0,-28.350000381469727
56,1726865371.924185,9.693670272827148,-0.2823631465435028,0.5168681740760803,1.3300000429153442,-4.340000152587891,-0.42000001668930054,59.662750244140625,-7.418059825897217,50.574684143066406,9.820494651794434,-1.141417145729065,0.6987291574478149,-0.699999988079071,-2.1700000762939453,-1.0499999523162842,20.25,-85.05000305175781,-27.450000762939453
57,1726865371.981818,9.676919937133789,-0.17946811020374298,0.5192610621452332,2.0999999046325684,-3.990000009536743,-0.3499999940395355,58.35283660888672,-8.261486053466797,50.01339340209961,9.858781814575195,-1.1581674814224243,0.7011220455169678,-1.399999976158142,-2.0299999713897705,-0.8400000333786011,19.80000114440918,-86.25,-26.400001525878906
58,1726865372.007459,9.719992637634277,-0.19382555782794952,0.5192610621452332,1.399999976158142,-3.8499999046325684,-0.3499999940395355,57.911781311035156,-8.196771621704102,49.186702728271484,9.796566009521484,-1.1916682720184326,0.8016242384910583,-1.6800000667572021,-2.0999999046325684,-0.9100000262260437,21.0,-84.60000610351562,-25.650001525878906
59,1726865372.0331001,9.724778175354004,-0.30629223585128784,0.4953319728374481,1.399999976158142,-4.340000152587891,-0.3499999940395355,57.18773651123047,-5.393797874450684,51.510841369628906,9.753493309020996,-1.1605603694915771,0.7561589479446411,-2.0299999713897705,-1.8899999856948853,-1.0499999523162842,20.850000381469727,-83.55000305175781,-26.100000381469727
60,1726865372.04486,9.753493309020996,-0.36850783228874207,0.4642241597175598,2.5199999809265137,-4.480000019073486,-0.5600000023841858,57.64797592163086,-9.213879585266113,49.00817108154297,,,,,,,,,
61,1726865372.058741,9.691277503967285,-0.1507532149553299,0.4929390549659729,3.5,-4.199999809265137,-0.42000001668930054,57.743953704833984,-7.112967014312744,48.8192024230957,9.698456764221191,-1.208418607711792,0.6963362693786621,-2.450000047683716,-2.0299999713897705,-0.8400000333786011,19.950000762939453,-84.45000457763672,-27.750001907348633
62,1726865372.0113368,9.734350204467773,-0.17468228936195374,0.569512128829956,2.940000057220459,-3.990000009536743,-0.42000001668930054,57.112701416015625,-9.649788856506348,49.2148551940918,9.791779518127441,-1.32806396484375,0.6532639265060425,-2.5199999809265137,-2.0299999713897705,-0.6299999952316284,22.200000762939453,-83.25,-26.700000762939453
63,1726865372.0369778,9.751100540161133,-0.22014755010604858,0.5336185097694397,2.380000114440918,-4.059999942779541,-0.6299999952316284,58.89664077758789,-8.864137649536133,51.58515167236328,9.837244987487793,-1.2227760553359985,0.727444052696228,-1.6100000143051147,-2.0999999046325684,-0.5600000023841858,20.850000381469727,-84.30000305175781,-27.750001907348633
64,1726865372.062619,9.782208442687988,-0.26800569891929626,0.4450809061527252,2.6600000858306885,-4.480000019073486,-0.6299999952316284,56.293575286865234,-7.907183647155762,50.23017501831055,9.758278846740723,-1.2132043838500977,0.7729093432426453,-1.0499999523162842,-1.9600000381469727,-1.0499999523162842,20.700000762939453,-84.0,-27.30000114440918
65,1726865372.08826,9.650598526000977,-0.2010042816400528,0.5025107264518738,2.940000057220459,-4.059999942779541,-0.6299999952316284,58.585418701171875,-5.651028633117676,50.05402374267578,9.801351547241211,-1.1940611600875854,0.7848738431930542,-0.5600000023841858,-2.0299999713897705,-1.3300000429153442,21.600000381469727,-83.70000457763672,-26.400001525878906
66,1726865372.0871978,9.66256332397461,-0.08853759616613388,0.49772489070892334,2.1700000762939453,-3.9200000762939453,-0.699999988079071,59.24864196777344,-8.667813301086426,50.916664123535156,9.822887420654297,-1.208418607711792,0.6771929860115051,-0.699999988079071,-1.9600000381469727,-1.0499999523162842,20.400001525878906,-84.30000305175781,-27.450000762939453
67,1726865372.1128387,9.73195743560791,-0.22014755010604858,0.569512128829956,1.5399999618530273,-3.5,-0.3499999940395355,57.85305404663086,-10.569625854492188,49.32720947265625,9.832459449768066,-1.1366313695907593,0.7059078812599182,-0.9100000262260437,-1.9600000381469727,-0.699999988079071,20.55000114440918,-85.20000457763672,-27.450000762939453
68,1726865372.13848,9.81092357635498,-0.2727915346622467,0.4809745252132416,1.6100000143051147,-4.130000114440918,-0.14000000059604645,56.84725570678711,-7.747182846069336,49.41371536254883,9.784601211547852,-1.201239824295044,0.7370156645774841,-1.8200000524520874,-2.0299999713897705,-1.1200000047683716,20.55000114440918,-83.4000015258789,-25.350000381469727
69,1726865372.164121,9.736742973327637,-0.2727915346622467,0.4737958014011383,2.309999942779541,-4.480000019073486,-0.14000000059604645,56.437530517578125,-4.7558159828186035,49.94672775268555,9.798958778381348,-1.2419192790985107,0.8135887384414673,-1.75,-2.0299999713897705,-1.2599999904632568,20.400001525878906,-84.45000457763672,-27.30000114440918
70,1726865372.1622348,9.82528018951416,-0.24886244535446167,0.5144752264022827,2.6600000858306885,-4.340000152587891,-0.14000000059604645,56.45636749267578,-4.751850605010986,50.50804901123047,9.81092357635498,-1.2778129577636719,0.7178724408149719,-1.6800000667572021,-1.8200000524520874,-0.8400000333786011,21.150001525878906,-84.75,-27.450000762939453
71,1726865372.1878757,9.679313659667969,-0.19861137866973877,0.5575475692749023,3.0799999237060547,-3.9200000762939453,-0.3499999940395355,59.4995231628418,-10.853266716003418,49.12571716308594,9.798958778381348,-1.2945632934570312,0.6843717098236084,-1.190000057220459,-1.9600000381469727,-0.699999988079071,20.55000114440918,-83.70000457763672,-27.30000114440918
72,1726865372.213517,9.684099197387695,-0.2416837215423584,0.5431901216506958,2.870000123977661,-4.199999809265137,-0.42000001668930054,58.93092727661133,-7.5367817878723145,52.24077224731445,9.798958778381348,-1.2778129577636719,0.7298369407653809,-0.7699999809265137,-1.9600000381469727,-0.8400000333786011,22.05000114440918,-83.70000457763672,-26.400001525878906
73,1726865372.239158,9.73195743560791,-0.26800569891929626,0.44268798828125,3.2200000286102295,-4.409999847412109,-0.3499999940395355,59.311187744140625,-7.334510326385498,52.41426467895508,9.786993980407715,-1.2323477268218994,0.7681235074996948,-0.699999988079071,-1.8200000524520874,-1.0499999523162842,20.700000762939453,-84.9000015258789,-27.600000381469727
74,1726865372.2969358,9.73195743560791,-0.22732627391815186,0.5288326740264893,3.990000009536743,-4.130000114440918,-0.2800000011920929,59.68497848510742,-8.733519554138184,51.603023529052734,9.801351547241211,-1.2179901599884033,0.7059078812599182,-0.699999988079071,-1.6100000143051147,-1.1200000047683716,20.850000381469727,-84.45000457763672,-27.600000381469727
75,1726865372.3225768,9.719992637634277,-0.1411815732717514,0.49054616689682007,3.569999933242798,-3.7799999713897705,-0.3499999940395355,55.68939971923828,-6.757674217224121,49.17632293701172,9.765458106994629,-1.2778129577636719,0.7418015003204346,0.07000000029802322,-1.9600000381469727,-1.0499999523162842,20.100000381469727,-83.70000457763672,-27.000001907348633
76,1726865372.345121,9.700849533081055,-0.13400284945964813,0.5288326740264893,2.6600000858306885,-3.640000104904175,-0.42000001668930054,58.075439453125,-4.481692314147949,51.806766510009766,9.746315002441406,-1.2730270624160767,0.765730619430542,0.7699999809265137,-2.0999999046325684,-1.190000057220459,20.400001525878906,-83.85000610351562,-26.250001907348633
77,1726865372.3707619,9.734350204467773,-0.2823631465435028,0.569512128829956,2.1700000762939453,-4.409999847412109,-0.14000000059604645,56.08849334716797,-6.5514373779296875,49.911136627197266,9.81092357635498,-1.2275618314743042,0.7729093432426453,1.3300000429153442,-1.9600000381469727,-1.3300000429153442,21.450000762939453,-84.45000457763672,-27.600000381469727
78,1726865372.3269088,9.698456764221191,-0.30629223585128784,0.5168681740760803,2.450000047683716,-4.690000057220459,-0.3499999940395355,55.89108657836914,-6.793996334075928,49.028343200683594,9.8085298538208,-1.1916682720184326,0.679585874080658,1.190000057220459,-1.6800000667572021,-1.2599999904632568,21.150001525878906,-82.5,-26.100000381469727
79,1726865372.3525498,9.693670272827148,-0.22014755010604858,0.5072965025901794,3.5,-4.130000114440918,-0.6299999952316284,58.48384475708008,-8.793475151062012,51.600440979003906,9.815709114074707,-1.2251689434051514,0.6963362693786621,0.8400000333786011,-1.8200000524520874,-1.1200000047683716,19.650001525878906,-83.85000610351562,-27.750001907348633
80,1726865372.378191,9.691277503967285,-0.19621846079826355,0.569512128829956,3.3600001335144043,-3.9200000762939453,-0.49000000953674316,57.0433464050293,-8.825039863586426,50.623191833496094,9.846817016601562,-1.208418607711792,0.7154794931411743,0.5600000023841858,-2.0299999713897705,-1.0499999523162842,20.700000762939453,-84.30000305175781,-27.000001907348633
81,1726865372.403832,9.667348861694336,-0.260826975107193,0.5910483002662659,3.2200000286102295,-4.340000152587891,-0.699999988079071,56.62377166748047,-6.115528106689453,49.70444869995117,9.822887420654297,-1.2634555101394653,0.7130866050720215,0.8400000333786011,-2.0299999713897705,-1.3300000429153442,21.150001525878906,-86.25,-27.000001907348633
82,1726865372.4018438,9.717599868774414,-0.16750356554985046,0.44747382402420044,3.569999933242798,-4.690000057220459,-0.9100000262260437,59.09668731689453,-5.980746269226074,51.8145637512207,9.782208442687988,-1.2658483982086182,0.758551836013794,1.6100000143051147,-1.6800000667572021,-1.4700000286102295,20.100000381469727,-84.45000457763672,-26.850000381469727
83,1726865372.4274848,9.641026496887207,-0.13639576733112335,0.4737958014011383,3.3600001335144043,-3.9200000762939453,-0.9800000190734863,59.392921447753906,-9.756574630737305,50.5825080871582,9.772636413574219,-1.1892752647399902,0.6891575455665588,1.6100000143051147,-1.5399999618530273,-1.6800000667572021,22.05000114440918,-83.85000610351562,-27.600000381469727
84,1726865372.453126,9.760672569274902,-0.19382555782794952,0.5120823383331299,2.5899999141693115,-3.7799999713897705,-0.6299999952316284,60.75717544555664,-10.781414031982422,50.812259674072266,9.753493309020996,-1.2132043838500977,0.746587336063385,1.5399999618530273,-1.8200000524520874,-1.5399999618530273,19.80000114440918,-83.85000610351562,-26.700000762939453
85,1726865372.478767,9.73195743560791,-0.26561281085014343,0.49772489070892334,2.6600000858306885,-3.7100000381469727,-0.699999988079071,58.254329681396484,-8.483227729797363,52.07753372192383,9.791779518127441,-1.1438100337982178,0.7418015003204346,1.190000057220459,-1.8899999856948853,-1.6100000143051147,19.5,-84.0,-27.900001525878906
86,1726865372.477639,9.815709114074707,-0.20579010248184204,0.46661707758903503,3.0799999237060547,-4.130000114440918,-0.42000001668930054,58.79684829711914,-9.925497055053711,50.13600158691406,9.765458106994629,-1.177310824394226,0.7776951193809509,0.5600000023841858,-2.1700000762939453,-1.3300000429153442,22.05000114440918,-84.9000015258789,-27.600000381469727
87,1726865372.50328,9.6697416305542,-0.15793193876743317,0.49054616689682007,2.6600000858306885,-3.990000009536743,-0.49000000953674316,56.9132194519043,-7.252507209777832,47.538360595703125,9.856388092041016,-1.179703712463379,0.7226582169532776,0.0,-2.0999999046325684,-1.2599999904632568,20.850000381469727,-83.25,-27.450000762939453
88,1726865372.5289211,9.602740287780762,-0.18664683401584625,0.569512128829956,2.240000009536743,-3.7100000381469727,-0.49000000953674316,58.966426849365234,-9.409013748168945,51.34790802001953,9.870745658874512,-1.2036327123641968,0.7226582169532776,-0.49000000953674316,-1.6800000667572021,-1.6100000143051147,19.950000762939453,-84.45000457763672,-26.55000114440918
89,1726865372.554562,9.717599868774414,-0.23929080367088318,0.569512128829956,1.8899999856948853,-3.5,-0.3499999940395355,59.07313919067383,-5.985702991485596,51.1129150390625,9.832459449768066,-1.2778129577636719,0.7322298884391785,-0.49000000953674316,-1.5399999618530273,-1.6800000667572021,20.100000381469727,-84.30000305175781,-27.450000762939453
90,1726865372.621413,9.686491966247559,-0.12921704351902008,0.4833674430847168,1.8200000524520874,-4.130000114440918,0.14000000059604645,57.60777282714844,-7.342639446258545,49.760704040527344,,,,,,,,,
91,1726865372.6121428,9.71520709991455,-0.12443122267723083,0.5599405169487,0.9100000262260437,-4.409999847412109,0.2800000011920929,59.61990737915039,-8.187651634216309,51.9805908203125,9.736742973327637,-1.2323477268218994,0.8159816861152649,0.0,-1.6800000667572021,-1.5399999618530273,21.900001525878906,-84.45000457763672,-26.55000114440918
92,1726865372.6377838,9.74870777130127,-0.19621846079826355,0.43790218234062195,-0.07000000029802322,-4.059999942779541,0.07000000029802322,58.63076400756836,-7.2414045333862305,50.6129150390625,9.72238540649414,-1.2179901599884033,0.7394086122512817,-0.14000000059604645,-1.75,-1.2599999904632568,21.0,-84.45000457763672,-25.80000114440918
93,1726865372.663425,9.74870777130127,-0.23929080367088318,0.4115802049636841,-0.42000001668930054,-3.990000009536743,-0.14000000059604645,56.24351501464844,-6.317800045013428,49.53095626831055,9.8085298538208,-1.246705174446106,0.7154794931411743,-0.2800000011920929,-1.9600000381469727,-0.9800000190734863,21.0,-85.5,-27.150001525878906
94,1726865372.689066,9.676919937133789,-0.2895418703556061,0.4929390549659729,-0.14000000059604645,-4.829999923706055,-0.2800000011920929,56.13780212402344,-4.180565357208252,49.489967346191406,9.789386749267578,-1.1342384815216064,0.7250511646270752,-0.3499999940395355,-2.1700000762939453,-0.8400000333786011,21.30000114440918,-84.45000457763672,-26.400001525878906
95,1726865372.6419518,9.684099197387695,-0.260826975107193,0.5168681740760803,0.3499999940395355,-4.96999979019165,-0.2800000011920929,58.31733703613281,-6.389254570007324,50.90625762939453,9.784601211547852,-1.1366313695907593,0.7753022313117981,-1.3300000429153442,-2.0999999046325684,-0.49000000953674316,22.650001525878906,-85.35000610351562,-27.150001525878906
96,1726865372.6675928,9.712814331054688,-0.3038993179798126,0.5120823383331299,0.5600000023841858,-4.409999847412109,-0.21000000834465027,58.0873908996582,-6.358880519866943,50.212249755859375,9.83485221862793,-1.1198810338974,0.648478090763092,-2.940000057220459,-1.8899999856948853,-0.5600000023841858,20.100000381469727,-83.55000305175781,-27.000001907348633
97,1726865372.693234,9.72238540649414,-0.3230426013469696,0.5025107264518738,1.3300000429153442,-4.059999942779541,-0.3499999940395355,57.34396743774414,-8.359746932983398,49.58217239379883,9.81092357635498,-1.2730270624160767,0.7011220455169678,-3.8499999046325684,-1.6800000667572021,-0.9100000262260437,21.0,-84.9000015258789,-26.55000114440918
98,1726865372.718875,9.736742973327637,-0.2943277060985565,0.5264397859573364,2.309999942779541,-3.7799999713897705,-0.3499999940395355,56.93851852416992,-5.647261619567871,49.08442306518555,9.770243644714355,-1.3543859720230103,0.7633376717567444,-3.3600001335144043,-1.75,-1.1200000047683716,22.05000114440918,-84.9000015258789,-28.05000114440918
99,1726865372.7169058,9.760672569274902,-0.30629223585128784,0.5360113978385925,3.009999990463257,-4.059999942779541,-0.3499999940395355,60.08143997192383,-11.168113708496094,52.9912109375,9.782208442687988,-1.3400285243988037,0.7800880670547485,-1.8200000524520874,-1.8899999856948853,-0.9100000262260437,19.80000114440918,-85.6500015258789,-26.400001525878906
100,1726865372.7425468,9.73195743560791,-0.4259376525878906,0.5288326740264893,4.199999809265137,-4.409999847412109,-0.9100000262260437,58.46718978881836,-6.91727876663208,53.05462646484375,9.82767391204834,-1.299349069595337,0.7370156645774841,-0.9100000262260437,-1.8899999856948853,-0.9100000262260437,20.700000762939453,-85.20000457763672,-27.000001907348633
101,1726865372.768188,9.75588607788086,-0.09810923039913177,0.39961564540863037,4.760000228881836,-4.480000019073486,-1.0499999523162842,58.424800872802734,-6.9262003898620605,51.791656494140625,9.801351547241211,-1.3974583148956299,0.7848738431930542,0.21000000834465027,-1.8899999856948853,-1.1200000047683716,20.400001525878906,-85.95000457763672,-26.850000381469727
102,1726865372.793829,9.64581298828125,-0.12682412564754486,0.5120823383331299,3.9200000762939453,-4.059999942779541,-0.9800000190734863,55.19915008544922,-4.543829441070557,49.99260330200195,9.803744316101074,-1.2634555101394653,0.806410014629364,1.399999976158142,-1.9600000381469727,-1.3300000429153442,20.55000114440918,-84.0,-25.350000381469727
103,1726865372.806757,9.72238540649414,-0.17946811020374298,0.5479759573936462,2.1700000762939453,-3.8499999046325684,-0.9800000190734863,57.896759033203125,-9.240288734436035,50.26349639892578,9.846817016601562,-1.246705174446106,0.727444052696228,2.240000009536743,-2.0999999046325684,-1.6800000667572021,20.55000114440918,-84.45000457763672,-26.400001525878906
104,1726865372.832398,9.724778175354004,-0.3302213251590729,0.5527617931365967,2.0999999046325684,-4.199999809265137,-1.1200000047683716,59.15955352783203,-8.8875732421875,53.2614631652832,9.8085298538208,-1.1438100337982178,0.6293348073959351,2.0299999713897705,-1.8200000524520874,-1.9600000381469727,20.700000762939453,-83.4000015258789,-26.700000762939453
105,1726865372.8580391,9.736742973327637,-0.2129688262939453,0.5120823383331299,3.3600001335144043,-3.9200000762939453,-1.1200000047683716,55.951881408691406,-7.0609822273254395,49.681541442871094,9.717599868774414,-1.179703712463379,0.6963362693786621,1.399999976158142,-1.8899999856948853,-1.8899999856948853,20.25,-85.5,-27.600000381469727
106,1726865372.88368,9.741528511047363,-0.11246667802333832,0.5120823383331299,2.940000057220459,-3.640000104904175,-0.9800000190734863,58.0582389831543,-7.405371189117432,50.8680534362793,9.760672569274902,-1.201239824295044,0.806410014629364,0.5600000023841858,-2.0999999046325684,-1.6100000143051147,21.450000762939453,-84.60000610351562,-26.250001907348633
107,1726865372.881815,9.693670272827148,-0.16271774470806122,0.5479759573936462,1.6100000143051147,-3.5,-0.8400000333786011,56.95943069458008,-8.283137321472168,50.43944549560547,9.882710456848145,-1.1868823766708374,0.7226582169532776,-0.07000000029802322,-1.8200000524520874,-1.6800000667572021,20.100000381469727,-83.25,-26.400001525878906
108,1726865372.907456,9.72238540649414,-0.30629223585128784,0.5790837407112122,1.2599999904632568,-3.569999933242798,-0.5600000023841858,57.30672073364258,-8.087803840637207,49.6306266784668,9.849209785461426,-1.148595929145813,0.7154794931411743,-0.7699999809265137,-1.75,-1.6800000667572021,18.75,-84.1500015258789,-27.30000114440918
109,1726865372.9330971,9.696063995361328,-0.3445787727832794,0.4331163763999939,2.5899999141693115,-3.9200000762939453,-0.8400000333786011,57.23222351074219,-7.543920040130615,49.7275390625,9.806137084960938,-1.2514909505844116,0.7776951193809509,-1.190000057220459,-1.75,-1.6100000143051147,21.0,-84.75,-27.450000762939453
110,1726865372.958738,9.6697416305542,-0.14596739411354065,0.49054616689682007,3.3600001335144043,-3.7799999713897705,-0.699999988079071,56.181400299072266,-7.371229648590088,49.20444869995117,9.791779518127441,-1.32806396484375,0.8111958503723145,-1.0499999523162842,-1.8899999856948853,-1.2599999904632568,21.450000762939453,-84.9000015258789,-26.55000114440918
111,1726865372.9568348,9.648205757141113,-0.1603248417377472,0.521653950214386,2.6600000858306885,-3.569999933242798,-0.49000000953674316,57.73834991455078,-8.154500961303711,50.176658630371094,9.82767391204834,-1.2490980625152588,0.7800880670547485,-0.6299999952316284,-1.6800000667572021,-1.2599999904632568,20.25,-83.55000305175781,-27.450000762939453
112,1726865372.9824758,9.7391357421875,-0.21775463223457336,0.5072965025901794,2.6600000858306885,-3.8499999046325684,-0.6299999952316284,56.55694580078125,-7.169949531555176,49.237613677978516,9.775029182434082,-1.3184924125671387,0.7202653288841248,0.07000000029802322,-1.5399999618530273,-1.6100000143051147,20.400001525878906,-84.9000015258789,-27.450000762939453
113,1726865373.008117,9.708027839660645,-0.26800569891929626,0.5025107264518738,3.009999990463257,-3.7799999713897705,-1.0499999523162842,60.26692581176758,-8.567569732666016,51.6285400390625,9.73195743560791,-1.2060257196426392,0.6939433217048645,0.6299999952316284,-1.3300000429153442,-1.6800000667572021,20.55000114440918,-85.80000305175781,-27.900001525878906
114,1726865373.033758,9.681706428527832,-0.16511066257953644,0.5384043455123901,2.940000057220459,-4.059999942779541,-0.9800000190734863,60.130313873291016,-9.077115058898926,51.39894485473633,9.820494651794434,-1.1581674814224243,0.6963362693786621,0.42000001668930054,-1.4700000286102295,-1.3300000429153442,20.850000381469727,-84.0,-27.600000381469727
115,1726865373.0316699,9.64341926574707,-0.1914326548576355,0.5360113978385925,1.6800000667572021,-3.7100000381469727,-0.8400000333786011,57.32512664794922,-8.363712310791016,49.02085494995117,9.830066680908203,-1.1677391529083252,0.6556568145751953,-0.49000000953674316,-1.5399999618530273,-1.3300000429153442,21.30000114440918,-86.10000610351562,-27.30000114440918
116,1726865373.0573108,9.664956092834473,-0.32782840728759766,0.47858160734176636,1.1200000047683716,-4.130000114440918,-0.5600000023841858,57.50369644165039,-8.125118255615234,49.342323303222656,9.782208442687988,-1.1940611600875854,0.7968384027481079,-0.9800000190734863,-1.75,-1.4700000286102295,20.700000762939453,-82.80000305175781,-27.000001907348633
117,1726865373.082952,9.72238540649414,-0.3350071310997009,0.4809745252132416,2.309999942779541,-4.550000190734863,-0.21000000834465027,56.628047943115234,-6.394409656524658,48.67368698120117,9.758278846740723,-1.3089207410812378,0.7848738431930542,-1.399999976158142,-1.9600000381469727,-1.399999976158142,19.80000114440918,-84.9000015258789,-25.500001907348633
118,1726865373.108593,9.650598526000977,-0.1698964685201645,0.5431901216506958,3.430000066757202,-4.409999847412109,-0.07000000029802322,56.69223403930664,-7.980820178985596,49.79389572143555,9.822887420654297,-1.4022440910339355,0.7489802241325378,-0.8400000333786011,-1.8899999856948853,-1.1200000047683716,21.0,-84.75,-26.55000114440918
119,1726865373.121924,9.700849533081055,-0.23929080367088318,0.619763195514679,2.940000057220459,-4.269999980926514,-0.21000000834465027,57.05540466308594,-6.182224750518799,50.25048065185547,9.82767391204834,-1.237133502960205,0.6508709788322449,-0.14000000059604645,-1.8200000524520874,-1.399999976158142,19.200000762939453,-84.9000015258789,-26.250001907348633
120,1726865373.1702118,9.655384063720703,-0.18664683401584625,0.5623334050178528,2.309999942779541,-4.829999923706055,-0.3499999940395355,59.508052825927734,-11.891826629638672,50.90415954589844,,,,,,,,,
121,1726865373.147565,9.751100540161133,-0.2105759084224701,0.4450809061527252,1.8899999856948853,-4.480000019073486,-0.699999988079071,58.53654098510742,-7.742027759552002,51.64628982543945,9.779815673828125,-1.2610626220703125,0.746587336063385,0.3499999940395355,-1.8200000524520874,-1.4700000286102295,19.950000762939453,-83.25,-27.150001525878906
122,1726865373.173206,9.693670272827148,-0.20339718461036682,0.5192610621452332,2.450000047683716,-4.480000019073486,-0.6299999952316284,56.57917785644531,-8.485408782958984,50.26594924926758,9.760672569274902,-1.2227760553359985,0.7298369407653809,0.42000001668930054,-2.240000009536743,-1.190000057220459,19.950000762939453,-84.30000305175781,-26.250001907348633
123,1726865373.198847,9.727170944213867,-0.20579010248184204,0.5240468978881836,2.1700000762939453,-3.9200000762939453,-0.5600000023841858,56.00239944458008,-7.8896965980529785,47.711883544921875,9.798958778381348,-1.201239824295044,0.7776951193809509,0.8400000333786011,-2.450000047683716,-1.0499999523162842,22.05000114440918,-83.70000457763672,-26.100000381469727
124,1726865373.225376,9.765458106994629,-0.26561281085014343,0.5958341360092163,1.6100000143051147,-3.990000009536743,-0.7699999809265137,58.456905364990234,-7.479007244110107,50.4317741394043,9.82528018951416,-1.1079164743423462,0.7035149931907654,0.07000000029802322,-2.1700000762939453,-1.2599999904632568,21.900001525878906,-84.60000610351562,-27.30000114440918
125,1726865373.2510169,9.73195743560791,-0.3350071310997009,0.4737958014011383,1.9600000381469727,-4.760000228881836,-0.7699999809265137,57.96611785888672,-10.065037727355957,48.855159759521484,9.741528511047363,-1.1725249290466309,0.7250511646270752,-0.9100000262260437,-2.0999999046325684,-1.3300000429153442,21.600000381469727,-84.9000015258789,-27.750001907348633
126,1726865373.276658,9.719992637634277,-0.25843408703804016,0.4929390549659729,3.3600001335144043,-4.550000190734863,-0.6299999952316284,58.775047302246094,-8.330164909362793,50.27875900268555,9.853995323181152,-1.2778129577636719,0.7561589479446411,-1.399999976158142,-2.380000114440918,-1.3300000429153442,19.5,-84.45000457763672,-26.250001907348633
127,1726865373.302299,9.64581298828125,-0.09810923039913177,0.5455830693244934,3.009999990463257,-3.9200000762939453,-0.49000000953674316,55.89326858520508,-4.913835048675537,51.043853759765625,9.877924919128418,-1.2658483982086182,0.7178724408149719,-0.9100000262260437,-2.380000114440918,-1.1200000047683716,20.25,-86.10000610351562,-26.100000381469727
128,1726865373.316825,9.698456764221191,-0.2129688262939453,0.46900999546051025,1.399999976158142,-4.199999809265137,-0.42000001668930054,58.57938766479492,-6.972436428070068,50.240379333496094,9.858781814575195,-1.239526391029358,0.7776951193809509,-0.49000000953674316,-2.0299999713897705,-1.399999976158142,18.75,-84.1500015258789,-28.200000762939453
129,1726865373.3424659,9.798958778381348,-0.27757734060287476,0.4522596299648285,1.2599999904632568,-4.269999980926514,-0.49000000953674316,58.30320739746094,-6.392228603363037,50.485267639160156,9.74870777130127,-1.2155972719192505,0.7753022313117981,-0.3499999940395355,-1.8899999856948853,-1.8200000524520874,21.450000762939453,-82.80000305175781,-26.55000114440918
130,1726865373.368107,9.741528511047363,-0.22732627391815186,0.44268798828125,2.0999999046325684,-4.199999809265137,-0.42000001668930054,57.421531677246094,-5.982927322387695,50.00298309326172,9.717599868774414,-1.296956181526184,0.7226582169532776,-0.5600000023841858,-2.0999999046325684,-1.190000057220459,19.5,-84.1500015258789,-27.150001525878906
131,1726865373.393748,9.700849533081055,-0.2010042816400528,0.540797233581543,2.0999999046325684,-4.059999942779541,-0.42000001668930054,55.52157211303711,-5.673869609832764,48.8088264465332,9.861174583435059,-1.2490980625152588,0.7489802241325378,-0.3499999940395355,-2.240000009536743,-0.8400000333786011,21.450000762939453,-84.60000610351562,-27.000001907348633
132,1726865373.346772,9.708027839660645,-0.25604116916656494,0.5910483002662659,1.75,-4.059999942779541,-0.42000001668930054,55.642730712890625,-6.4877142906188965,48.944114685058594,9.856388092041016,-1.1844894886016846,0.7154794931411743,-0.2800000011920929,-1.9600000381469727,-1.1200000047683716,19.950000762939453,-86.25,-28.500001907348633
133,1726865373.372413,9.719992637634277,-0.260826975107193,0.45704543590545654,1.8899999856948853,-4.199999809265137,-0.49000000953674316,58.00215530395508,-7.137393951416016,50.35519027709961,9.8085298538208,-1.2323477268218994,0.8111958503723145,-0.21000000834465027,-2.0299999713897705,-1.4700000286102295,19.650001525878906,-85.35000610351562,-27.450000762939453
134,1726865373.3980541,9.667348861694336,-0.32543548941612244,0.5264397859573364,2.870000123977661,-4.199999809265137,-0.49000000953674316,57.42491912841797,-7.302351951599121,50.470001220703125,9.779815673828125,-1.2610626220703125,0.7489802241325378,-0.2800000011920929,-2.0999999046325684,-1.3300000429153442,20.850000381469727,-83.55000305175781,-26.850000381469727
135,1726865373.423695,9.698456764221191,-0.2225404530763626,0.4929390549659729,3.1500000953674316,-3.8499999046325684,-0.8400000333786011,59.09493637084961,-7.581035137176514,50.97015380859375,9.81092357635498,-1.2490980625152588,0.708300769329071,0.14000000059604645,-2.0299999713897705,-1.1200000047683716,21.75,-84.30000305175781,-27.450000762939453
136,1726865373.4694428,9.655384063720703,-0.2536482512950897,0.5671192407608032,2.940000057220459,-3.8499999046325684,-0.8400000333786011,56.814720153808594,-7.474248886108398,49.602500915527344,9.84203052520752,-1.2562767267227173,0.765730619430542,0.6299999952316284,-2.0299999713897705,-1.5399999618530273,20.55000114440918,-84.30000305175781,-27.30000114440918
137,1726865373.4950838,9.734350204467773,-0.2416837215423584,0.461831271648407,2.940000057220459,-3.9200000762939453,-0.6299999952316284,57.724220275878906,-8.157475471496582,49.75566864013672,9.803744316101074,-1.239526391029358,0.7729093432426453,0.9100000262260437,-1.8200000524520874,-1.9600000381469727,21.75,-84.0,-27.150001525878906
138,1726865373.520725,9.75588607788086,-0.18664683401584625,0.4714028835296631,3.8499999046325684,-4.340000152587891,-0.5600000023841858,56.302669525146484,-3.665072441101074,50.56154251098633,9.758278846740723,-1.2825987339019775,0.7537660598754883,0.9100000262260437,-1.8200000524520874,-1.8200000524520874,20.55000114440918,-85.35000610351562,-25.80000114440918
139,1726865373.546366,9.693670272827148,-0.1722893863916397,0.46900999546051025,3.640000104904175,-4.199999809265137,-0.7699999809265137,56.255897521972656,-7.915114402770996,49.10753631591797,9.794173240661621,-1.2945632934570312,0.6867645978927612,1.5399999618530273,-1.75,-1.6800000667572021,20.700000762939453,-83.70000457763672,-27.000001907348633
140,1726865373.5116968,9.657776832580566,-0.13400284945964813,0.5144752264022827,1.9600000381469727,-4.059999942779541,-0.7699999809265137,58.10743713378906,-9.5545015335083,49.2250862121582,9.832459449768066,-1.148595929145813,0.6412993669509888,1.9600000381469727,-1.8200000524520874,-1.6800000667572021,20.100000381469727,-84.60000610351562,-26.400001525878906
141,1726865373.5373378,9.719992637634277,-0.260826975107193,0.4115802049636841,0.3499999940395355,-4.130000114440918,-0.6299999952316284,57.01508712768555,-8.830987930297852,49.781211853027344,9.798958778381348,-1.0361292362213135,0.7322298884391785,0.49000000953674316,-1.8899999856948853,-1.5399999618530273,21.600000381469727,-85.35000610351562,-26.250001907348633
142,1726865373.562979,9.767850875854492,-0.30868515372276306,0.45704543590545654,1.190000057220459,-4.409999847412109,-0.49000000953674316,57.53195571899414,-8.119170188903809,50.184303283691406,9.786993980407715,-1.2251689434051514,0.7944455146789551,-1.0499999523162842,-2.0299999713897705,-1.4700000286102295,21.450000762939453,-84.30000305175781,-26.400001525878906
143,1726865373.58862,9.633848190307617,-0.27518442273139954,0.4953319728374481,2.240000009536743,-4.340000152587891,-0.699999988079071,58.43378829956055,-7.204090595245361,50.901222229003906,9.849209785461426,-1.3304568529129028,0.746587336063385,-1.0499999523162842,-1.8899999856948853,-1.2599999904632568,21.150001525878906,-84.1500015258789,-26.700000762939453
144,1726865373.6004028,9.655384063720703,-0.2010042816400528,0.5431901216506958,2.0999999046325684,-4.269999980926514,-0.5600000023841858,57.32687759399414,-6.763423919677734,49.865264892578125,9.82528018951416,-1.2634555101394653,0.6915504336357117,-0.3499999940395355,-1.6100000143051147,-1.399999976158142,20.850000381469727,-85.5,-27.000001907348633
145,1726865373.6260438,9.743921279907227,-0.3302213251590729,0.43550926446914673,1.8200000524520874,-4.340000152587891,-0.6299999952316284,59.2529182434082,-8.946695327758789,49.885894775390625,9.72238540649414,-1.2490980625152588,0.727444052696228,-0.42000001668930054,-1.6800000667572021,-1.399999976158142,20.700000762939453,-84.0,-25.80000114440918
146,1726865373.651685,9.82767391204834,-0.21536172926425934,0.44986671209335327,3.009999990463257,-4.409999847412109,-0.6299999952316284,59.41044235229492,-11.07302474975586,51.470516204833984,9.775029182434082,-1.299349069595337,0.7824809551239014,-0.14000000059604645,-1.9600000381469727,-1.190000057220459,20.55000114440918,-85.80000305175781,-27.450000762939453
147,1726865373.677326,9.667348861694336,-0.2225404530763626,0.46900999546051025,3.569999933242798,-4.480000019073486,-0.9800000190734863,57.557254791259766,-6.513925552368164,51.73036575317383,9.846817016601562,-1.2347406148910522,0.6891575455665588,0.6299999952316284,-2.0999999046325684,-1.2599999904632568,20.400001525878906,-84.75,-26.250001907348633
148,1726865373.6618268,9.657776832580566,-0.17468228936195374,0.509689450263977,2.5899999141693115,-3.990000009536743,-0.9800000190734863,58.89664077758789,-8.864137649536133,51.58515167236328,9.8444242477417,-1.1366313695907593,0.6891575455665588,0.7699999809265137,-2.0299999713897705,-1.6100000143051147,21.30000114440918,-84.1500015258789,-26.55000114440918
149,1726865373.6874678,9.679313659667969,-0.2919347882270813,0.49772489070892334,2.0299999713897705,-3.9200000762939453,-0.6299999952316284,56.58948516845703,-7.442883491516113,49.048828125,9.71520709991455,-1.1749178171157837,0.7370156645774841,0.3499999940395355,-2.0999999046325684,-1.6800000667572021,20.400001525878906,-84.9000015258789,-26.850000381469727
150,1726865373.713109,9.71520709991455,-0.21775463223457336,0.4761887192726135,2.0999999046325684,-4.269999980926514,-0.2800000011920929,56.730804443359375,-6.932346820831299,49.41875457763672,9.73195743560791,-1.3160994052886963,0.7800880670547485,-0.14000000059604645,-2.380000114440918,-1.5399999618530273,19.80000114440918,-85.35000610351562,-26.55000114440918
151,1726865373.772221,9.7391357421875,-0.3038993179798126,0.4546525478363037,1.399999976158142,-4.690000057220459,-0.3499999940395355,58.20295333862305,-8.214259147644043,51.70499801635742,,,,,,,,,
152,1726865373.73875,9.758278846740723,-0.20579010248184204,0.44268798828125,0.6299999952316284,-5.110000133514404,-0.07000000029802322,59.55133056640625,-10.842361450195312,50.669349670410156,9.81092357635498,-1.3256710767745972,0.7896596789360046,0.699999988079071,-2.5899999141693115,-1.3300000429153442,20.55000114440918,-84.9000015258789,-26.700000762939453
153,1726865373.7962978,9.698456764221191,-0.29911351203918457,0.4331163763999939,0.9800000190734863,-4.760000228881836,0.21000000834465027,58.445735931396484,-9.081278800964355,49.30670166015625,9.81092357635498,-1.2251689434051514,0.7226582169532776,0.699999988079071,-2.380000114440918,-1.1200000047683716,20.55000114440918,-84.30000305175781,-25.500001907348633
154,1726865373.821939,9.784601211547852,-0.19621846079826355,0.40918728709220886,2.309999942779541,-4.269999980926514,0.42000001668930054,57.3628044128418,-8.355782508850098,50.14349365234375,9.798958778381348,-1.3017419576644897,0.7370156645774841,0.2800000011920929,-2.1700000762939453,-1.0499999523162842,19.950000762939453,-86.10000610351562,-26.400001525878906
155,1726865373.84758,9.712814331054688,-0.12443122267723083,0.5025107264518738,2.240000009536743,-4.059999942779541,0.3499999940395355,55.78744125366211,-7.296602249145508,49.78105926513672,9.791779518127441,-1.3089207410812378,0.7418015003204346,0.49000000953674316,-2.1700000762939453,-1.1200000047683716,21.0,-85.05000305175781,-26.400001525878906
156,1726865373.8451009,9.64341926574707,-0.1411815732717514,0.5838695764541626,0.5600000023841858,-4.059999942779541,0.0,58.38580322265625,-8.254547119140625,50.995704650878906,9.873138427734375,-1.2132043838500977,0.6412993669509888,0.8400000333786011,-1.8899999856948853,-0.9800000190734863,20.25,-85.6500015258789,-26.250001907348633
157,1726865373.826779,9.815709114074707,-0.3206496834754944,0.4737958014011383,-0.42000001668930054,-4.340000152587891,-0.7699999809265137,59.073890686035156,-9.945959091186523,52.233306884765625,9.791779518127441,-1.1198810338974,0.6389064788818359,-0.14000000059604645,-1.6800000667572021,-0.9800000190734863,19.950000762939453,-85.05000305175781,-27.150001525878906
158,1726865373.8524199,9.75588607788086,-0.2943277060985565,0.40918728709220886,1.0499999523162842,-4.409999847412109,-0.8400000333786011,59.15234375,-6.5285964012146,51.156333923339844,9.729564666748047,-1.170132040977478,0.7920525670051575,-1.6800000667572021,-2.1700000762939453,-0.8400000333786011,20.400001525878906,-84.30000305175781,-26.850000381469727
159,1726865373.878061,9.7391357421875,-0.26800569891929626,0.521653950214386,2.380000114440918,-4.130000114440918,-0.9100000262260437,59.39466857910156,-8.156286239624023,51.426918029785156,9.794173240661621,-1.1725249290466309,0.7968384027481079,-2.450000047683716,-2.240000009536743,-0.699999988079071,20.850000381469727,-84.1500015258789,-26.700000762939453
160,1726865373.903702,9.73195743560791,-0.3015064299106598,0.5001177787780762,2.940000057220459,-3.640000104904175,-1.1200000047683716,58.06843948364258,-10.882847785949707,48.42913055419922,9.830066680908203,-1.2419192790985107,0.765730619430542,-2.5899999141693115,-1.9600000381469727,-1.0499999523162842,21.75,-86.70000457763672,-26.55000114440918
161,1726865373.901856,9.794173240661621,-0.3134709596633911,0.5144752264022827,3.3600001335144043,-3.569999933242798,-1.190000057220459,55.79643249511719,-7.574492931365967,48.890625,9.815709114074707,-1.268241286277771,0.7609447836875916,-1.8200000524520874,-1.75,-1.5399999618530273,19.80000114440918,-83.70000457763672,-27.000001907348633
162,1726865373.927497,9.758278846740723,-0.36611494421958923,0.4044014811515808,4.409999847412109,-3.990000009536743,-1.399999976158142,58.689815521240234,-9.108678817749023,50.42169952392578,9.794173240661621,-1.3256710767745972,0.7130866050720215,-1.4700000286102295,-1.9600000381469727,-1.4700000286102295,20.25,-85.5,-27.600000381469727
163,1726865373.953138,9.684099197387695,-0.1603248417377472,0.4761887192726135,4.480000019073486,-3.7100000381469727,-1.190000057220459,58.694522857666016,-9.107686996459961,50.56203079223633,9.90424633026123,-1.2873845100402832,0.7992312908172607,-0.8400000333786011,-1.9600000381469727,-1.4700000286102295,20.850000381469727,-85.6500015258789,-26.400001525878906
164,1726865373.978779,9.621883392333984,-0.13878867030143738,0.44747382402420044,3.2899999618530273,-3.3600001335144043,-0.699999988079071,56.673397064208984,-7.984785556793213,49.232574462890625,9.846817016601562,-1.2921704053878784,0.7226582169532776,-0.14000000059604645,-1.8899999856948853,-2.0999999046325684,21.0,-83.70000457763672,-27.30000114440918
165,1726865373.9767568,9.676919937133789,-0.15553902089595795,0.5072965025901794,2.5199999809265137,-3.3600001335144043,-0.42000001668930054,57.18937683105469,-8.313511848449707,51.133453369140625,9.772636413574219,-1.3687434196472168,0.7561589479446411,0.42000001668930054,-1.5399999618530273,-2.380000114440918,19.350000381469727,-86.25,-26.250001907348633
166,1726865374.0023978,9.693670272827148,-0.21536172926425934,0.521653950214386,2.0299999713897705,-4.269999980926514,-0.21000000834465027,57.36794662475586,-8.07491683959961,51.454917907714844,9.729564666748047,-1.3400285243988037,0.6987291574478149,1.5399999618530273,-1.4700000286102295,-2.0299999713897705,20.25,-83.55000305175781,-26.850000381469727
167,1726865374.028039,9.696063995361328,-0.24886244535446167,0.5001177787780762,1.6100000143051147,-3.990000009536743,-0.6299999952316284,57.80210876464844,-10.020784378051758,50.12577438354492,9.724778175354004,-1.1892752647399902,0.6580497026443481,1.4700000286102295,-1.4700000286102295,-1.4700000286102295,19.5,-85.35000610351562,-26.55000114440918
168,1726865374.05368,9.770243644714355,-0.15314611792564392,0.4809745252132416,1.5399999618530273,-3.9200000762939453,-0.6299999952316284,57.63898849487305,-8.935988426208496,49.89860916137695,9.815709114074707,-1.1198810338974,0.667621374130249,-0.14000000059604645,-1.399999976158142,-0.9800000190734863,19.80000114440918,-84.75,-27.000001907348633
169,1726865374.0957167,9.693670272827148,-0.21536172926425934,0.4833674430847168,0.9800000190734863,-3.7799999713897705,-0.699999988079071,59.86825942993164,-8.49393367767334,52.064823150634766,9.770243644714355,-1.1438100337982178,0.7130866050720215,-2.1700000762939453,-1.5399999618530273,-1.1200000047683716,21.0,-83.55000305175781,-26.700000762939453
170,1726865374.121358,9.786993980407715,-0.3230426013469696,0.49054616689682007,0.49000000953674316,-3.7799999713897705,-0.8400000333786011,59.09065628051758,-7.30215311050415,52.00092315673828,9.820494651794434,-1.148595929145813,0.7298369407653809,-3.2899999618530273,-1.6800000667572021,-1.2599999904632568,20.850000381469727,-85.05000305175781,-27.30000114440918
171,1726865374.146999,9.741528511047363,-0.46900999546051025,0.5240468978881836,1.3300000429153442,-4.340000152587891,-0.8400000333786011,55.90214538574219,-9.711727142333984,48.93161392211914,9.765458106994629,-1.2897775173187256,0.6891575455665588,-3.7799999713897705,-2.0299999713897705,-1.2599999904632568,20.55000114440918,-84.0,-27.150001525878906
172,1726865374.1451468,9.657776832580566,-0.39961564540863037,0.47858160734176636,2.940000057220459,-4.269999980926514,-0.49000000953674316,58.01025390625,-8.455826759338379,50.9625358581543,9.82528018951416,-1.4118157625198364,0.758551836013794,-2.6600000858306885,-2.1700000762939453,-1.190000057220459,19.80000114440918,-84.75,-26.250001907348633
173,1726865374.141871,9.66256332397461,-0.24646952748298645,0.5503688454627991,3.9200000762939453,-3.7799999713897705,-0.3499999940395355,58.93773651123047,-9.69483470916748,49.33483123779297,9.832459449768066,-1.454888105392456,0.8614469170570374,-1.190000057220459,-1.9600000381469727,-1.399999976158142,21.900001525878906,-85.20000457763672,-26.55000114440918
174,1726865374.167512,9.7391357421875,-0.16511066257953644,0.5120823383331299,3.640000104904175,-3.640000104904175,-0.21000000834465027,56.75392150878906,-7.207263469696045,48.949310302734375,9.758278846740723,-1.4142086505889893,0.7705163955688477,0.699999988079071,-1.6800000667572021,-1.6100000143051147,20.400001525878906,-84.1500015258789,-26.400001525878906
175,1726865374.1931531,9.719992637634277,-0.1914326548576355,0.49772489070892334,3.0799999237060547,-3.9200000762939453,-0.2800000011920929,57.58333206176758,-8.388139724731445,50.55683517456055,9.772636413574219,-1.2921704053878784,0.6436922550201416,1.9600000381469727,-1.6100000143051147,-1.5399999618530273,19.05000114440918,-84.60000610351562,-27.900001525878906
176,1726865374.218794,9.727170944213867,-0.22014755010604858,0.44268798828125,2.380000114440918,-4.690000057220459,-0.21000000834465027,57.26947021484375,-7.81586217880249,49.67908477783203,9.753493309020996,-1.1629533767700195,0.6532639265060425,2.309999942779541,-1.8899999856948853,-1.1200000047683716,19.5,-84.45000457763672,-25.80000114440918
177,1726865374.21674,9.672134399414062,-0.2321120798587799,0.5264397859573364,1.8899999856948853,-4.130000114440918,-0.2800000011920929,58.29585647583008,-9.034051895141602,50.99831008911133,9.858781814575195,-1.0361292362213135,0.7418015003204346,1.190000057220459,-2.0299999713897705,-1.0499999523162842,20.850000381469727,-84.45000457763672,-25.80000114440918
178,1726865374.2423809,9.705635070800781,-0.16271774470806122,0.47858160734176636,1.4700000286102295,-3.8499999046325684,-0.49000000953674316,59.5111198425293,-8.971121788024902,51.42188262939453,9.786993980407715,-1.1150951385498047,0.8303391337394714,-0.8400000333786011,-1.8200000524520874,-1.399999976158142,21.150001525878906,-84.60000610351562,-26.400001525878906
179,1726865374.268022,9.686491966247559,-0.2416837215423584,0.5360113978385925,0.9100000262260437,-3.5,-0.42000001668930054,57.20307540893555,-8.590410232543945,50.38334274291992,9.75588607788086,-1.2036327123641968,0.7441943883895874,-2.309999942779541,-1.6800000667572021,-1.3300000429153442,19.650001525878906,-85.80000305175781,-26.100000381469727
180,1726865374.293663,9.648205757141113,-0.26800569891929626,0.4929390549659729,0.9100000262260437,-4.059999942779541,-0.2800000011920929,58.835845947265625,-8.597151756286621,50.93195343017578,9.760672569274902,-1.356778860092163,0.6628355383872986,-2.1700000762939453,-1.75,-1.1200000047683716,21.0,-84.75,-25.650001525878906
181,1726865374.320818,9.674527168273926,-0.3445787727832794,0.4139730930328369,1.399999976158142,-4.269999980926514,0.21000000834465027,56.96403503417969,-12.80214786529541,49.35797119140625,,,,,,,,,
182,1726865374.2919598,9.772636413574219,-0.33740004897117615,0.461831271648407,2.0999999046325684,-3.9200000762939453,-0.07000000029802322,58.90605926513672,-8.862154960632324,51.86581039428711,9.760672569274902,-1.3304568529129028,0.7346227765083313,-1.4700000286102295,-2.1700000762939453,-0.699999988079071,20.700000762939453,-84.45000457763672,-27.450000762939453
183,1726865374.3176007,9.710420608520508,-0.2129688262939453,0.5144752264022827,3.0799999237060547,-4.340000152587891,-0.3499999940395355,59.023834228515625,-8.356575012207031,51.53408432006836,9.832459449768066,-1.3304568529129028,0.7920525670051575,-0.5600000023841858,-1.9600000381469727,-0.8400000333786011,21.30000114440918,-84.0,-27.150001525878906
184,1726865374.343242,9.66016960144043,-0.25604116916656494,0.5384043455123901,2.5899999141693115,-4.409999847412109,-0.699999988079071,57.948246002197266,-4.989254951477051,51.85783004760742,9.815709114074707,-1.1509888172149658,0.679585874080658,0.49000000953674316,-1.5399999618530273,-1.0499999523162842,19.80000114440918,-84.60000610351562,-25.350000381469727
185,1726865374.368883,9.717599868774414,-0.284756064414978,0.5120823383331299,2.6600000858306885,-4.340000152587891,-0.9100000262260437,55.33269119262695,-6.954988956451416,49.7044792175293,9.770243644714355,-1.2275618314743042,0.6915504336357117,0.3499999940395355,-1.75,-1.399999976158142,19.05000114440918,-82.6500015258789,-25.350000381469727
186,1726865374.421547,9.775029182434082,-0.2225404530763626,0.4714028835296631,2.7300000190734863,-4.199999809265137,-0.6299999952316284,56.276912689208984,-6.030987739562988,51.68436050415039,9.789386749267578,-1.2179901599884033,0.8135887384414673,-0.14000000059604645,-2.0999999046325684,-1.5399999618530273,20.55000114440918,-85.5,-27.000001907348633
187,1726865374.447188,9.751100540161133,-0.260826975107193,0.4929390549659729,2.6600000858306885,-4.199999809265137,-0.7699999809265137,58.35415267944336,-6.941070079803467,49.68670654296875,9.8444242477417,-1.2897775173187256,0.8279461860656738,-0.21000000834465027,-2.1700000762939453,-1.6800000667572021,20.100000381469727,-83.55000305175781,-28.500001907348633
188,1726865374.445109,9.672134399414062,-0.1722893863916397,0.4833674430847168,2.0999999046325684,-4.619999885559082,-0.49000000953674316,55.467552185058594,-8.045732498168945,49.089664459228516,9.832459449768066,-1.3208853006362915,0.7346227765083313,0.21000000834465027,-1.8200000524520874,-1.5399999618530273,19.80000114440918,-84.30000305175781,-26.700000762939453
189,1726865374.4707499,9.681706428527832,-0.22971917688846588,0.49054616689682007,1.5399999618530273,-4.199999809265137,-0.3499999940395355,60.03697967529297,-8.537195205688477,50.93453598022461,9.772636413574219,-1.2586696147918701,0.6604426503181458,0.5600000023841858,-1.8200000524520874,-1.3300000429153442,19.5,-85.5,-26.55000114440918
190,1726865374.4567058,9.753493309020996,-0.24886244535446167,0.4522596299648285,1.399999976158142,-3.7799999713897705,-0.42000001668930054,58.38405227661133,-9.854835510253906,50.15129470825195,9.741528511047363,-1.1653462648391724,0.7489802241325378,0.42000001668930054,-2.0299999713897705,-1.1200000047683716,20.400001525878906,-85.5,-27.150001525878906
191,1726865374.4823468,9.693670272827148,-0.2225404530763626,0.4929390549659729,1.5399999618530273,-3.640000104904175,-0.6299999952316284,60.668548583984375,-10.240503311157227,50.48817825317383,9.856388092041016,-1.1581674814224243,0.758551836013794,-0.42000001668930054,-2.0999999046325684,-0.8400000333786011,21.0,-84.1500015258789,-27.450000762939453
192,1726865374.507988,9.753493309020996,-0.30868515372276306,0.5049036145210266,1.0499999523162842,-3.3600001335144043,-0.7699999809265137,56.013999938964844,-6.007552146911621,50.00804901123047,9.870745658874512,-1.1270596981048584,0.6652284264564514,-1.75,-2.0299999713897705,-0.8400000333786011,20.400001525878906,-83.4000015258789,-26.700000762939453
193,1726865374.533629,9.698456764221191,-0.3302213251590729,0.5503688454627991,0.8400000333786011,-3.1500000953674316,-0.8400000333786011,56.013999938964844,-6.007552146911621,50.00804901123047,9.775029182434082,-1.1892752647399902,0.7705163955688477,-2.309999942779541,-1.8899999856948853,-1.2599999904632568,20.850000381469727,-84.60000610351562,-25.80000114440918
194,1726865374.53174,9.667348861694336,-0.34936457872390747,0.4833674430847168,1.2599999904632568,-3.430000066757202,-0.9100000262260437,57.58803939819336,-8.387147903442383,50.697166442871094,9.796566009521484,-1.3400285243988037,0.7322298884391785,-2.380000114440918,-1.9600000381469727,-1.6800000667572021,20.850000381469727,-83.55000305175781,-25.650001525878906
195,1726865374.557381,9.684099197387695,-0.25843408703804016,0.43550926446914673,2.450000047683716,-4.059999942779541,-0.49000000953674316,57.635597229003906,-7.616564750671387,49.43159103393555,9.820494651794434,-1.404637098312378,0.7130866050720215,-1.6800000667572021,-1.9600000381469727,-1.6800000667572021,20.55000114440918,-84.9000015258789,-26.100000381469727
196,1726865374.583022,9.64581298828125,-0.2416837215423584,0.5168681740760803,2.870000123977661,-4.480000019073486,-0.21000000834465027,57.9151725769043,-9.516196250915527,49.653717041015625,9.75588607788086,-1.416601538658142,0.6915504336357117,-0.2800000011920929,-1.5399999618530273,-1.5399999618530273,19.650001525878906,-85.6500015258789,-25.80000114440918
197,1726865374.608663,9.624276161193848,-0.181861013174057,0.5503688454627991,2.309999942779541,-4.269999980926514,-0.42000001668930054,57.884273529052734,-12.162976264953613,49.46511459350586,9.693670272827148,-1.2323477268218994,0.6891575455665588,1.2599999904632568,-1.3300000429153442,-1.6100000143051147,21.150001525878906,-85.05000305175781,-26.400001525878906
198,1726865374.6070218,9.789386749267578,-0.14836029708385468,0.4307234585285187,1.1200000047683716,-4.130000114440918,-0.699999988079071,57.3628044128418,-8.355782508850098,50.14349365234375,9.686491966247559,-1.0528795719146729,0.7561589479446411,0.699999988079071,-1.6100000143051147,-1.4700000286102295,19.950000762939453,-85.05000305175781,-28.200000762939453
199,1726865374.6326628,9.82767391204834,-0.30868515372276306,0.5431901216506958,1.1200000047683716,-4.130000114440918,-0.9800000190734863,57.489105224609375,-8.888761520385742,51.590213775634766,9.813316345214844,-1.081594467163086,0.6963362693786621,-1.6100000143051147,-2.0299999713897705,-1.190000057220459,22.350000381469727,-85.35000610351562,-25.05000114440918
200,1726865374.658304,9.7391357421875,-0.30629223585128784,0.5766908526420593,1.399999976158142,-3.9200000762939453,-0.9100000262260437,58.52416229248047,-6.144712924957275,52.069705963134766,9.899460792541504,-1.2179901599884033,0.6987291574478149,-3.3600001335144043,-2.0299999713897705,-1.4700000286102295,19.80000114440918,-85.95000457763672,-27.150001525878906
201,1726865374.683945,9.664956092834473,-0.39961564540863037,0.509689450263977,1.0499999523162842,-3.0799999237060547,-0.7699999809265137,59.506412506103516,-8.972112655639648,51.281551361083984,9.789386749267578,-1.3687434196472168,0.8111958503723145,-3.7799999713897705,-2.0999999046325684,-1.6800000667572021,21.900001525878906,-85.5,-28.200000762939453
202,1726865374.721441,9.705635070800781,-0.37568655610084534,0.4235447347164154,2.0299999713897705,-3.569999933242798,-0.5600000023841858,57.81844711303711,-7.6568522453308105,48.7222900390625,9.741528511047363,-1.531461238861084,0.8518753051757812,-2.380000114440918,-2.1700000762939453,-1.4700000286102295,20.25,-86.10000610351562,-27.30000114440918
203,1726865374.747082,9.667348861694336,-0.3924369215965271,0.42833054065704346,3.1500000953674316,-4.269999980926514,-0.9100000262260437,55.35538101196289,-7.5097784996032715,48.063934326171875,9.851602554321289,-1.3926725387573242,0.6628355383872986,0.07000000029802322,-1.8899999856948853,-1.190000057220459,18.900001525878906,-83.55000305175781,-26.400001525878906
204,1726865374.745313,9.760672569274902,-0.26800569891929626,0.41875892877578735,3.9200000762939453,-4.480000019073486,-0.699999988079071,59.52778244018555,-10.847318649291992,49.96769714355469,9.767850875854492,-1.2658483982086182,0.6436922550201416,1.4700000286102295,-1.75,-1.399999976158142,19.05000114440918,-85.5,-26.250001907348633
205,1726865374.770954,9.751100540161133,-0.19861137866973877,0.44747382402420044,3.640000104904175,-4.059999942779541,-0.7699999809265137,55.22391128540039,-7.73845911026001,49.1457633972168,9.815709114074707,-1.237133502960205,0.7441943883895874,1.190000057220459,-1.8200000524520874,-1.8899999856948853,20.400001525878906,-84.75,-27.450000762939453
206,1726865374.7717218,9.686491966247559,-0.13878867030143738,0.6508709788322449,2.940000057220459,-3.5,-0.9800000190734863,58.688926696777344,-10.149222373962402,51.91948318481445,9.863567352294922,-1.239526391029358,0.765730619430542,0.7699999809265137,-1.6100000143051147,-2.0999999046325684,19.200000762939453,-85.20000457763672,-28.05000114440918
207,1726865374.7973628,9.667348861694336,-0.20579010248184204,0.5575475692749023,2.380000114440918,-3.990000009536743,-0.8400000333786011,58.339134216308594,-7.984586715698242,50.76349639892578,9.770243644714355,-1.2730270624160767,0.7753022313117981,0.3499999940395355,-1.399999976158142,-1.75,20.400001525878906,-84.1500015258789,-26.700000762939453
208,1726865374.8201108,9.674527168273926,-0.22971917688846588,0.48576033115386963,1.9600000381469727,-3.9200000762939453,-0.7699999809265137,55.03635025024414,-7.699163436889648,49.7147331237793,9.75588607788086,-1.1892752647399902,0.7609447836875916,0.14000000059604645,-1.8899999856948853,-1.190000057220459,21.0,-83.85000610351562,-26.700000762939453
209,1726865374.8457518,9.73195743560791,-0.25604116916656494,0.3924369215965271,1.399999976158142,-3.990000009536743,-0.699999988079071,60.15047073364258,-7.7527337074279785,51.63357925415039,9.741528511047363,-1.1605603694915771,0.7800880670547485,-1.1200000047683716,-2.5199999809265137,-0.9800000190734863,19.650001525878906,-84.9000015258789,-27.150001525878906
210,1726865374.84702,9.743921279907227,-0.36850783228874207,0.38765111565589905,1.6800000667572021,-3.9200000762939453,-0.6299999952316284,57.573909759521484,-8.390122413635254,50.27617645263672,9.873138427734375,-1.2634555101394653,0.667621374130249,-2.0299999713897705,-2.309999942779541,-0.9800000190734863,19.05000114440918,-84.9000015258789,-26.850000381469727
211,1726865374.897034,9.664956092834473,-0.3948298394680023,0.5312256217002869,2.870000123977661,-4.269999980926514,-0.8400000333786011,58.242733001708984,-10.365371704101562,49.781368255615234,,,,,,,,,
212,1726865374.8726609,9.664956092834473,-0.27997025847435,0.521653950214386,3.5,-4.130000114440918,-0.6299999952316284,54.93052673339844,-10.081930160522461,48.45193862915039,9.813316345214844,-1.3256710767745972,0.667621374130249,-1.6800000667572021,-1.8899999856948853,-1.399999976158142,20.55000114440918,-84.1500015258789,-27.750001907348633
213,1726865374.898302,9.746315002441406,-0.24886244535446167,0.5312256217002869,3.2899999618530273,-4.409999847412109,-0.42000001668930054,58.095489501953125,-7.677313327789307,50.81959915161133,9.763065338134766,-1.454888105392456,0.7441943883895874,-0.42000001668930054,-1.8200000524520874,-1.75,18.600000381469727,-85.5,-27.450000762939453
214,1726865374.923943,9.741528511047363,-0.27518442273139954,0.4737958014011383,3.640000104904175,-4.130000114440918,-0.21000000834465027,56.963279724121094,-8.84189224243164,48.23758316040039,9.801351547241211,-1.416601538658142,0.7920525670051575,1.6100000143051147,-1.8899999856948853,-1.75,21.900001525878906,-84.0,-27.000001907348633
215,1726865374.9368098,9.719992637634277,-0.18425391614437103,0.5049036145210266,3.430000066757202,-3.7799999713897705,-0.42000001668930054,59.40408706665039,-8.154303550720215,51.70758056640625,9.815709114074707,-1.2419192790985107,0.6915504336357117,2.5199999809265137,-1.6100000143051147,-1.5399999618530273,19.650001525878906,-85.05000305175781,-28.05000114440918
216,1726865374.9624507,9.624276161193848,-0.16511066257953644,0.5647262930870056,2.450000047683716,-3.7100000381469727,-0.5600000023841858,58.31776809692383,-6.109381675720215,52.07735061645508,9.820494651794434,-1.0935590267181396,0.727444052696228,1.8899999856948853,-1.8200000524520874,-1.6100000143051147,21.150001525878906,-84.30000305175781,-27.30000114440918
217,1726865374.988092,9.71520709991455,-0.30868515372276306,0.4020085632801056,1.5399999618530273,-4.269999980926514,-1.0499999523162842,56.19805908203125,-9.24742603302002,47.75026321411133,9.789386749267578,-1.1174880266189575,0.7178724408149719,0.21000000834465027,-1.9600000381469727,-1.5399999618530273,20.25,-84.60000610351562,-26.850000381469727
218,1726865375.013733,9.801351547241211,-0.2416837215423584,0.5072965025901794,1.5399999618530273,-4.199999809265137,-1.2599999904632568,57.33454895019531,-8.361729621887207,49.301513671875,9.775029182434082,-1.1844894886016846,0.7035149931907654,-0.9800000190734863,-2.0299999713897705,-1.5399999618530273,20.100000381469727,-85.20000457763672,-25.05000114440918
219,1726865375.0121198,9.734350204467773,-0.30868515372276306,0.461831271648407,1.75,-4.130000114440918,-0.9800000190734863,58.02045440673828,-11.933303833007812,48.52361297607422,9.8444242477417,-1.2778129577636719,0.6963362693786621,-1.6100000143051147,-1.75,-1.5399999618530273,21.450000762939453,-84.0,-27.30000114440918
220,1726865375.0377607,9.664956092834473,-0.27997025847435,0.5599405169487,2.309999942779541,-3.990000009536743,-0.9100000262260437,56.96196365356445,-10.162306785583496,48.56427001953125,9.75588607788086,-1.3017419576644897,0.7106937170028687,-1.4700000286102295,-1.6800000667572021,-1.8899999856948853,19.05000114440918,-83.55000305175781,-26.100000381469727
221,1726865375.063402,9.712814331054688,-0.3350071310997009,0.5264397859573364,3.0799999237060547,-3.9200000762939453,-0.8400000333786011,53.72304153442383,-7.2231645584106445,48.68642044067383,9.779815673828125,-1.359171748161316,0.7992312908172607,-0.49000000953674316,-1.6800000667572021,-1.8899999856948853,21.0,-85.35000610351562,-26.250001907348633
222,1726865375.089043,9.758278846740723,-0.20818300545215607,0.4642241597175598,3.3600001335144043,-3.640000104904175,-0.7699999809265137,55.17723846435547,-7.468499660491943,48.9135627746582,9.770243644714355,-1.3304568529129028,0.7561589479446411,0.699999988079071,-1.75,-1.5399999618530273,20.25,-84.0,-26.700000762939453
223,1726865375.086268,9.770243644714355,-0.32543548941612244,0.4546525478363037,2.5899999141693115,-3.7100000381469727,-1.190000057220459,58.46928405761719,-9.076322555541992,50.00835418701172,9.832459449768066,-1.1581674814224243,0.7059078812599182,1.190000057220459,-1.6800000667572021,-1.399999976158142,21.450000762939453,-85.20000457763672,-27.150001525878906
224,1726865375.111909,9.686491966247559,-0.22971917688846588,0.44986671209335327,2.799999952316284,-3.7799999713897705,-1.2599999904632568,58.46928405761719,-9.076322555541992,50.00835418701172,9.8085298538208,-1.1677391529083252,0.7106937170028687,0.49000000953674316,-2.0999999046325684,-1.75,19.200000762939453,-83.70000457763672,-26.100000381469727
225,1726865375.13755,9.73195743560791,-0.14357449114322662,0.46900999546051025,2.940000057220459,-3.7799999713897705,-0.8400000333786011,56.90159606933594,-9.615448951721191,49.08217239379883,9.789386749267578,-1.2155972719192505,0.7776951193809509,0.07000000029802322,-2.1700000762939453,-2.0299999713897705,19.200000762939453,-83.4000015258789,-25.350000381469727
226,1726865375.163191,9.65299129486084,-0.19382555782794952,0.5599405169487,3.0799999237060547,-4.340000152587891,-0.699999988079071,56.70550537109375,-8.537592887878418,47.8726921081543,9.865960121154785,-1.306527853012085,0.6915504336357117,0.07000000029802322,-1.8899999856948853,-1.75,19.80000114440918,-83.10000610351562,-27.150001525878906
227,1726865375.1620398,9.712814331054688,-0.19382555782794952,0.48576033115386963,2.870000123977661,-4.550000190734863,-0.3499999940395355,57.11915969848633,-8.048508644104004,50.1995964050293,9.784601211547852,-1.2490980625152588,0.7394086122512817,0.3499999940395355,-1.75,-1.2599999904632568,19.200000762939453,-83.25,-27.150001525878906
228,1726865375.1876807,9.703242301940918,-0.15553902089595795,0.5144752264022827,2.0999999046325684,-3.7799999713897705,-0.5600000023841858,59.490962982177734,-10.295502662658691,51.187252044677734,9.8085298538208,-1.0624512434005737,0.7968384027481079,0.14000000059604645,-1.8200000524520874,-1.1200000047683716,21.450000762939453,-86.25,-25.500001907348633
229,1726865375.213322,9.729564666748047,-0.16511066257953644,0.44747382402420044,1.190000057220459,-3.7100000381469727,-0.9100000262260437,54.98115158081055,-6.390643119812012,47.70408248901367,9.791779518127441,-1.1127022504806519,0.7202653288841248,-0.9100000262260437,-2.0999999046325684,-1.0499999523162842,20.400001525878906,-83.55000305175781,-27.000001907348633
230,1726865375.238963,9.65299129486084,-0.3230426013469696,0.45943835377693176,1.4700000286102295,-4.409999847412109,-1.0499999523162842,59.43705749511719,-8.147364616394043,52.68989181518555,9.820494651794434,-1.1270596981048584,0.6341206431388855,-2.309999942779541,-1.8899999856948853,-0.9800000190734863,20.25,-83.85000610351562,-25.950000762939453
231,1726865375.2517538,9.672134399414062,-0.21536172926425934,0.49772489070892334,1.8200000524520874,-4.550000190734863,-0.8400000333786011,57.257843017578125,-10.178803443908691,51.222896575927734,9.729564666748047,-1.246705174446106,0.7298369407653809,-2.6600000858306885,-2.1700000762939453,-1.399999976158142,20.850000381469727,-83.70000457763672,-26.100000381469727
232,1726865375.270562,9.712814331054688,-0.3445787727832794,0.4737958014011383,1.4700000286102295,-4.130000114440918,-1.0499999523162842,56.792808532714844,-10.398919105529785,48.523460388183594,9.81810188293457,-1.299349069595337,0.8518753051757812,-2.6600000858306885,-2.240000009536743,-1.6100000143051147,19.200000762939453,-85.20000457763672,-27.000001907348633
233,1726865375.296203,9.830066680908203,-0.19382555782794952,0.5479759573936462,1.6800000667572021,-3.990000009536743,-1.0499999523162842,55.87092971801758,-8.118377685546875,48.7937126159668,9.8444242477417,-1.3639576435089111,0.746587336063385,-1.8899999856948853,-2.0299999713897705,-1.6100000143051147,18.75,-86.10000610351562,-26.100000381469727
234,1726865375.321844,9.698456764221191,-0.2727915346622467,0.4809745252132416,1.8899999856948853,-4.409999847412109,-0.8400000333786011,58.12199783325195,-9.27165412902832,50.817169189453125,9.798958778381348,-1.2825987339019775,0.6891575455665588,-0.8400000333786011,-1.8200000524520874,-1.5399999618530273,19.200000762939453,-85.20000457763672,-26.700000762939453
235,1726865375.3270829,9.717599868774414,-0.2105759084224701,0.5049036145210266,1.4700000286102295,-4.199999809265137,-0.699999988079071,57.90750503540039,-7.917890548706055,50.21746826171875,9.798958778381348,-1.1964540481567383,0.7250511646270752,-0.14000000059604645,-2.0299999713897705,-1.399999976158142,19.5,-84.9000015258789,-26.55000114440918
236,1726865375.345142,9.703242301940918,-0.2895418703556061,0.5336185097694397,1.2599999904632568,-3.8499999046325684,-0.49000000953674316,59.00203323364258,-6.761242389678955,51.67684555053711,9.813316345214844,-1.2108114957809448,0.7513731122016907,-0.49000000953674316,-2.1700000762939453,-1.3300000429153442,21.75,-84.45000457763672,-26.250001907348633
237,1726865375.3707829,9.75588607788086,-0.27518442273139954,0.44747382402420044,1.6100000143051147,-3.7799999713897705,-0.8400000333786011,57.835079193115234,-10.013845443725586,51.10808563232422,9.853995323181152,-1.2419192790985107,0.7202653288841248,-1.190000057220459,-1.75,-1.4700000286102295,18.900001525878906,-83.85000610351562,-26.850000381469727
238,1726865375.396424,9.664956092834473,-0.27518442273139954,0.5360113978385925,2.6600000858306885,-4.199999809265137,-0.9100000262260437,58.40464401245117,-8.250581741333008,51.55702209472656,9.815709114074707,-1.1964540481567383,0.679585874080658,-1.75,-1.5399999618530273,-1.6100000143051147,21.450000762939453,-84.1500015258789,-28.500001907348633
239,1726865375.40183,9.64341926574707,-0.15553902089595795,0.5336185097694397,2.380000114440918,-4.130000114440918,-0.6299999952316284,58.29499816894531,-9.59379768371582,48.6561164855957,9.760672569274902,-1.3017419576644897,0.7968384027481079,-1.5399999618530273,-1.8200000524520874,-1.75,19.650001525878906,-84.1500015258789,-27.000001907348633
240,1726865375.4201298,9.667348861694336,-0.2512553632259369,0.5671192407608032,1.6100000143051147,-3.7100000381469727,-0.42000001668930054,58.498863220214844,-7.749958515167236,50.52364730834961,9.688884735107422,-1.3137065172195435,0.8327320218086243,-1.2599999904632568,-1.8200000524520874,-1.399999976158142,19.950000762939453,-85.5,-25.950000762939453
241,1726865375.4457707,9.712814331054688,-0.38525819778442383,0.48576033115386963,1.75,-4.059999942779541,-0.7699999809265137,57.82872772216797,-7.095123291015625,51.34514617919922,,,,,,,,,
242,1726865375.4531121,9.688884735107422,-0.22014755010604858,0.4642241597175598,2.450000047683716,-4.199999809265137,-0.42000001668930054,55.99723434448242,-8.651358604431152,50.24043273925781,9.803744316101074,-1.3256710767745972,0.7537660598754883,-0.8400000333786011,-1.75,-1.0499999523162842,20.850000381469727,-84.0,-27.150001525878906
243,1726865375.478753,9.679313659667969,-0.15553902089595795,0.43550926446914673,1.8899999856948853,-4.340000152587891,-0.14000000059604645,55.35363006591797,-9.110067367553711,47.21952438354492,9.815709114074707,-1.2419192790985107,0.5982270240783691,-0.7699999809265137,-1.5399999618530273,-1.1200000047683716,19.650001525878906,-84.45000457763672,-25.650001525878906
244,1726865375.4769208,9.688884735107422,-0.2010042816400528,0.5934411883354187,1.399999976158142,-4.199999809265137,-0.21000000834465027,60.05274963378906,-11.453934669494629,50.97813415527344,9.806137084960938,-1.2347406148910522,0.6652284264564514,-1.1200000047683716,-1.6800000667572021,-1.190000057220459,20.25,-84.60000610351562,-27.000001907348633
245,1726865375.5025618,9.703242301940918,-0.29911351203918457,0.5384043455123901,1.75,-4.130000114440918,-0.42000001668930054,57.18423843383789,-8.594375610351562,49.822021484375,9.763065338134766,-1.179703712463379,0.7441943883895874,-1.190000057220459,-2.0999999046325684,-0.9800000190734863,20.850000381469727,-83.25,-27.30000114440918
246,1726865375.528203,9.688884735107422,-0.3038993179798126,0.5312256217002869,2.799999952316284,-4.269999980926514,-0.5600000023841858,59.205360412597656,-9.717278480529785,51.1514778137207,9.839637756347656,-1.2443121671676636,0.7992312908172607,-1.399999976158142,-2.0299999713897705,-0.9800000190734863,19.5,-85.80000305175781,-28.650001525878906
247,1726865375.553844,9.681706428527832,-0.2225404530763626,0.4761887192726135,2.450000047683716,-4.269999980926514,-0.3499999940395355,59.020442962646484,-7.0371503829956055,51.06706619262695,9.784601211547852,-1.2778129577636719,0.7609447836875916,-1.399999976158142,-1.8899999856948853,-1.190000057220459,21.0,-85.05000305175781,-26.400001525878906
248,1726865375.5670028,9.629061698913574,-0.32543548941612244,0.4714028835296631,1.6800000667572021,-4.130000114440918,-0.3499999940395355,60.172271728515625,-9.348065376281738,51.490821838378906,9.751100540161133,-1.3208853006362915,0.6819788217544556,-1.0499999523162842,-2.1700000762939453,-1.190000057220459,20.400001525878906,-84.9000015258789,-25.650001525878906
249,1726865375.5926437,9.75588607788086,-0.34697166085243225,0.40679436922073364,2.240000009536743,-4.130000114440918,-0.5600000023841858,57.61290740966797,-7.061775207519531,51.0721321105957,9.796566009521484,-1.2849916219711304,0.6915504336357117,-0.42000001668930054,-2.309999942779541,-1.0499999523162842,21.75,-84.1500015258789,-26.250001907348633
250,1726865375.618285,9.688884735107422,-0.30629223585128784,0.5049036145210266,3.640000104904175,-4.550000190734863,-0.3499999940395355,57.01212692260742,-7.231689453125,50.48529052734375,9.830066680908203,-1.2921704053878784,0.7418015003204346,0.0,-2.0299999713897705,-1.1200000047683716,20.25,-84.60000610351562,-25.80000114440918
251,1726865375.643926,9.758278846740723,-0.1603248417377472,0.6149773597717285,3.9200000762939453,-4.340000152587891,-0.2800000011920929,56.98080062866211,-10.158341407775879,49.12559127807617,9.801351547241211,-1.2825987339019775,0.7202653288841248,0.3499999940395355,-1.8200000524520874,-1.5399999618530273,20.25,-84.0,-27.000001907348633
252,1726865375.641877,9.700849533081055,-0.11964540183544159,0.5623334050178528,2.380000114440918,-4.059999942779541,-0.49000000953674316,59.66657257080078,-8.457612037658691,52.212799072265625,9.743921279907227,-1.2036327123641968,0.7154794931411743,0.5600000023841858,-2.0299999713897705,-1.4700000286102295,22.05000114440918,-85.95000457763672,-25.80000114440918
253,1726865375.667518,9.72238540649414,-0.3350071310997009,0.4642241597175598,1.75,-4.480000019073486,-0.9100000262260437,55.33871841430664,-5.63358211517334,49.51811981201172,9.794173240661621,-1.2490980625152588,0.7441943883895874,0.2800000011920929,-2.450000047683716,-1.1200000047683716,20.700000762939453,-83.85000610351562,-25.950000762939453
254,1726865375.693159,9.71520709991455,-0.24407662451267242,0.39722275733947754,2.870000123977661,-4.480000019073486,-0.9100000262260437,58.30231857299805,-7.432771682739258,51.98305130004883,9.798958778381348,-1.2132043838500977,0.7130866050720215,0.07000000029802322,-2.450000047683716,-1.190000057220459,22.950000762939453,-83.85000610351562,-25.950000762939453
255,1726865375.7188,9.708027839660645,-0.2321120798587799,0.4546525478363037,3.5,-4.480000019073486,-1.1200000047683716,58.30231857299805,-7.432771682739258,51.98305130004883,9.815709114074707,-1.2108114957809448,0.6580497026443481,-0.3499999940395355,-2.0999999046325684,-1.5399999618530273,20.700000762939453,-83.70000457763672,-25.650001525878906
256,1726865375.7170548,9.724778175354004,-0.19861137866973877,0.48576033115386963,3.0799999237060547,-4.340000152587891,-1.190000057220459,56.624202728271484,-5.835655212402344,50.87554931640625,9.777422904968262,-1.2514909505844116,0.6963362693786621,-0.9800000190734863,-2.0299999713897705,-1.75,19.950000762939453,-85.20000457763672,-26.400001525878906
257,1726865375.7426958,9.703242301940918,-0.23929080367088318,0.5360113978385925,2.450000047683716,-4.480000019073486,-0.9800000190734863,56.872554779052734,-6.141937255859375,50.95977783203125,9.796566009521484,-1.3017419576644897,0.7609447836875916,-0.6299999952316284,-2.309999942779541,-1.6100000143051147,20.400001525878906,-84.60000610351562,-27.600000381469727
258,1726865375.768337,9.74870777130127,-0.27518442273139954,0.47858160734176636,2.380000114440918,-4.480000019073486,-0.8400000333786011,58.05528259277344,-5.8060736656188965,51.5721321105957,9.858781814575195,-1.2897775173187256,0.7848738431930542,0.2800000011920929,-2.1700000762939453,-1.3300000429153442,20.100000381469727,-84.0,-26.55000114440918
259,1726865375.793978,9.700849533081055,-0.24886244535446167,0.4809745252132416,3.009999990463257,-4.199999809265137,-0.6299999952316284,55.90478515625,-7.070895671844482,48.27824020385742,9.84203052520752,-1.2275618314743042,0.7011220455169678,0.5600000023841858,-1.8899999856948853,-1.399999976158142,21.150001525878906,-83.25,-26.55000114440918
260,1726865375.7917528,9.64581298828125,-0.23929080367088318,0.4642241597175598,3.2200000286102295,-4.340000152587891,-0.7699999809265137,57.117408752441406,-9.648797035217285,49.355186462402344,9.782208442687988,-1.179703712463379,0.7370156645774841,0.21000000834465027,-1.8899999856948853,-1.4700000286102295,20.25,-84.9000015258789,-27.000001907348633
261,1726865375.8173938,9.6697416305542,-0.19382555782794952,0.5144752264022827,3.009999990463257,-3.990000009536743,-1.0499999523162842,58.04115295410156,-5.809047698974609,51.15114212036133,9.772636413574219,-1.2203831672668457,0.7441943883895874,-0.49000000953674316,-2.1700000762939453,-1.4700000286102295,21.150001525878906,-84.9000015258789,-25.500001907348633
262,1726865375.843035,9.727170944213867,-0.25604116916656494,0.4211518168449402,2.5199999809265137,-4.130000114440918,-0.9100000262260437,58.13273620605469,-7.949256420135498,50.77114486694336,9.820494651794434,-1.3256710767745972,0.6748000979423523,-0.42000001668930054,-2.240000009536743,-1.4700000286102295,19.350000381469727,-83.70000457763672,-27.150001525878906
263,1726865375.868676,9.743921279907227,-0.22493335604667664,0.46900999546051025,2.7300000190734863,-4.130000114440918,-0.8400000333786011,58.81743240356445,-8.321243286132812,51.54172897338867,9.853995323181152,-1.275420069694519,0.6724071502685547,0.21000000834465027,-2.0999999046325684,-1.399999976158142,21.30000114440918,-85.20000457763672,-26.850000381469727
264,1726865375.870389,9.753493309020996,-0.23450499773025513,0.44268798828125,2.7300000190734863,-4.619999885559082,-0.5600000023841858,56.89863586425781,-8.016151428222656,49.786251068115234,9.851602554321289,-1.3184924125671387,0.7346227765083313,0.6299999952316284,-1.8899999856948853,-1.5399999618530273,20.100000381469727,-85.35000610351562,-26.850000381469727
265,1726865375.89603,9.672134399414062,-0.284756064414978,0.5120823383331299,2.5199999809265137,-4.199999809265137,-0.8400000333786011,57.471160888671875,-7.852184772491455,49.53110885620117,9.796566009521484,-1.237133502960205,0.7298369407653809,0.8400000333786011,-1.9600000381469727,-1.75,19.650001525878906,-83.25,-25.200000762939453
266,1726865375.9216712,9.753493309020996,-0.17707519233226776,0.47858160734176636,2.0999999046325684,-4.059999942779541,-0.7699999809265137,54.69247817993164,-8.733122825622559,47.15058898925781,9.820494651794434,-1.2802058458328247,0.7322298884391785,0.5600000023841858,-1.75,-1.8200000524520874,19.350000381469727,-85.05000305175781,-27.000001907348633
267,1726865375.947312,9.801351547241211,-0.2823631465435028,0.4642241597175598,2.380000114440918,-4.130000114440918,-0.9800000190734863,57.06560134887695,-9.65970230102539,47.811553955078125,9.822887420654297,-1.2706341743469238,0.648478090763092,1.1200000047683716,-1.8899999856948853,-1.8200000524520874,20.25,-84.1500015258789,-26.250001907348633
268,1726865375.9453888,9.743921279907227,-0.2703986167907715,0.4450809061527252,3.3600001335144043,-4.409999847412109,-0.9800000190734863,56.049495697021484,-7.879783630371094,49.11518478393555,9.798958778381348,-1.229954719543457,0.7441943883895874,1.1200000047683716,-2.0299999713897705,-1.8899999856948853,20.25,-84.45000457763672,-25.80000114440918
269,1726865375.9710298,9.708027839660645,-0.2010042816400528,0.4929390549659729,3.569999933242798,-4.199999809265137,-0.9800000190734863,56.32831954956055,-5.819159030914307,48.2169189453125,9.741528511047363,-1.1653462648391724,0.7633376717567444,1.3300000429153442,-2.0999999046325684,-1.8899999856948853,20.400001525878906,-84.0,-26.100000381469727
270,1726865375.996671,9.609918594360352,-0.23929080367088318,0.5312256217002869,3.2200000286102295,-3.7799999713897705,-0.8400000333786011,58.03940200805664,-7.409336566925049,50.306732177734375,9.798958778381348,-1.2610626220703125,0.7130866050720215,0.6299999952316284,-2.0999999046325684,-1.6800000667572021,20.400001525878906,-83.25,-27.30000114440918
271,1726865376.022312,9.815709114074707,-0.17946811020374298,0.4809745252132416,2.6600000858306885,-4.130000114440918,-0.9100000262260437,58.04750061035156,-8.72776985168457,50.91408157348633,9.82767391204834,-1.2538838386535645,0.6389064788818359,0.42000001668930054,-2.0299999713897705,-1.5399999618530273,21.600000381469727,-83.55000305175781,-26.100000381469727
275,1726865382.5728,9.691277503967285,-0.3230426013469696,0.3541503846645355,0.21000000834465027,-3.8499999046325684,-0.21000000834465027,59.022193908691406,-5.436861515045166,51.911476135253906,9.760672569274902,-1.3160994052886963,0.6700142621994019,-2.450000047683716,-1.6800000667572021,-1.190000057220459,20.850000381469727,-83.55000305175781,-27.30000114440918
276,1726865382.6364448,9.753493309020996,-0.3517574965953827,0.41636601090431213,1.190000057220459,-4.130000114440918,-0.49000000953674316,55.90050506591797,-6.792013645172119,49.30900573730469,,,,,,,,,
277,1726865382.598441,9.703242301940918,-0.2703986167907715,0.38525819778442383,1.8899999856948853,-4.199999809265137,-0.42000001668930054,59.65540313720703,-10.059883117675781,51.08772659301758,9.727170944213867,-1.2610626220703125,0.7178724408149719,-2.450000047683716,-1.8200000524520874,-1.190000057220459,21.600000381469727,-82.80000305175781,-25.350000381469727
278,1726865382.624082,9.691277503967285,-0.22732627391815186,0.3541503846645355,1.399999976158142,-3.990000009536743,-0.2800000011920929,57.02450942993164,-8.829005241394043,50.06187057495117,9.801351547241211,-1.3184924125671387,0.6867645978927612,-2.1700000762939453,-1.9600000381469727,-1.1200000047683716,20.400001525878906,-85.35000610351562,-28.200000762939453
279,1726865382.649723,9.729564666748047,-0.30868515372276306,0.3134709596633911,1.1200000047683716,-4.340000152587891,-0.3499999940395355,55.277923583984375,-5.366596221923828,48.86492919921875,9.775029182434082,-1.3208853006362915,0.6365135312080383,-1.75,-1.75,-1.0499999523162842,19.350000381469727,-84.60000610351562,-27.30000114440918
280,1726865382.6624289,9.736742973327637,-0.3038993179798126,0.3804723918437958,1.2599999904632568,-4.269999980926514,-0.21000000834465027,55.277923583984375,-5.366596221923828,48.86492919921875,9.813316345214844,-1.3137065172195435,0.6365135312080383,-1.5399999618530273,-1.8200000524520874,-1.190000057220459,20.400001525878906,-84.45000457763672,-24.750001907348633
281,1726865382.6880698,9.66256332397461,-0.2943277060985565,0.48576033115386963,1.190000057220459,-3.8499999046325684,-0.07000000029802322,58.44452667236328,-5.881692409515381,50.855194091796875,9.779815673828125,-1.3304568529129028,0.6269419193267822,-1.399999976158142,-2.0299999713897705,-1.190000057220459,20.700000762939453,-85.35000610351562,-27.750001907348633
282,1726865382.713711,9.64341926574707,-0.3350071310997009,0.4642241597175598,1.0499999523162842,-4.059999942779541,-0.2800000011920929,58.3798828125,-5.0559515953063965,52.40385818481445,9.820494651794434,-1.2873845100402832,0.6604426503181458,-1.399999976158142,-1.75,-0.9800000190734863,19.80000114440918,-83.70000457763672,-27.000001907348633
283,1726865382.739352,9.806137084960938,-0.3709007501602173,0.29911351203918457,2.240000009536743,-4.059999942779541,0.0,58.732200622558594,-9.099757194519043,51.684669494628906,9.81092357635498,-1.306527853012085,0.6532639265060425,-1.6100000143051147,-1.6800000667572021,-0.9800000190734863,21.75,-84.30000305175781,-28.650001525878906
284,1726865382.7373078,9.856388092041016,-0.20818300545215607,0.2703986167907715,2.1700000762939453,-3.7799999713897705,-0.42000001668930054,57.874961853027344,-7.644956588745117,50.406253814697266,9.638633728027344,-1.3113136291503906,0.7418015003204346,-1.399999976158142,-1.9600000381469727,-0.9100000262260437,21.150001525878906,-86.85000610351562,-24.0
285,1726865382.7629488,9.763065338134766,-0.3302213251590729,0.5001177787780762,1.75,-3.9200000762939453,-0.21000000834465027,57.3983039855957,-10.228013038635254,49.25062942504883,9.775029182434082,-1.3519930839538574,0.6939433217048645,-0.6299999952316284,-2.380000114440918,-0.7699999809265137,21.0,-84.60000610351562,-26.100000381469727
286,1726865382.78859,9.66016960144043,-0.24886244535446167,0.2727915346622467,1.0499999523162842,-4.409999847412109,-0.3499999940395355,57.70274353027344,-10.80227279663086,49.84772491455078,10.081321716308594,-1.2778129577636719,0.48576033115386963,-0.49000000953674316,-1.9600000381469727,-0.6299999952316284,20.100000381469727,-84.45000457763672,-27.150001525878906
287,1726865382.814231,9.73195743560791,-0.12443122267723083,0.39961564540863037,0.8400000333786011,-4.550000190734863,-0.2800000011920929,58.97245788574219,-8.087606430053711,51.16154861450195,9.770243644714355,-1.2586696147918701,0.5647262930870056,-1.3300000429153442,-1.4700000286102295,-1.1200000047683716,21.75,-85.35000610351562,-27.150001525878906
288,1726865382.8124158,9.676919937133789,-0.22971917688846588,0.49772489070892334,0.21000000834465027,-4.550000190734863,-0.14000000059604645,59.180171966552734,-6.802521705627441,50.82721710205078,9.777422904968262,-1.2323477268218994,0.679585874080658,-1.9600000381469727,-1.4700000286102295,-1.6100000143051147,19.650001525878906,-84.30000305175781,-26.700000762939453
289,1726865382.8380568,9.693670272827148,-0.363722026348114,0.4929390549659729,-0.2800000011920929,-4.340000152587891,-0.3499999940395355,58.8340950012207,-10.197440147399902,50.08754348754883,9.81092357635498,-1.2562767267227173,0.6341206431388855,-2.7300000190734863,-1.3300000429153442,-1.8200000524520874,21.450000762939453,-85.05000305175781,-27.750001907348633
290,1726865382.863698,9.717599868774414,-0.34936457872390747,0.363722026348114,-0.14000000059604645,-4.269999980926514,-0.2800000011920929,59.763755798339844,-9.556285858154297,50.475345611572266,9.71520709991455,-1.3184924125671387,0.6604426503181458,-2.5899999141693115,-1.2599999904632568,-1.5399999618530273,21.75,-84.45000457763672,-26.55000114440918
291,1726865382.889339,9.770243644714355,-0.363722026348114,0.30868515372276306,1.190000057220459,-3.7100000381469727,-0.5600000023841858,56.179649353027344,-8.971518516540527,48.36003875732422,9.71520709991455,-1.2921704053878784,0.7609447836875916,-2.240000009536743,-1.75,-1.0499999523162842,20.850000381469727,-84.75,-27.000001907348633
292,1726865382.902298,9.703242301940918,-0.41875892877578735,0.39722275733947754,3.0799999237060547,-3.640000104904175,-0.5600000023841858,58.721031188964844,-10.702028274536133,50.559600830078125,9.815709114074707,-1.3831008672714233,0.7872667908668518,-1.8899999856948853,-2.240000009536743,-0.8400000333786011,20.850000381469727,-84.45000457763672,-26.700000762939453
293,1726865382.927939,9.693670272827148,-0.34936457872390747,0.363722026348114,3.569999933242798,-3.8499999046325684,-0.9800000190734863,56.84211730957031,-8.028047561645508,48.102291107177734,9.861174583435059,-1.3711363077163696,0.6030128598213196,-1.190000057220459,-1.8200000524520874,-0.9800000190734863,19.200000762939453,-85.95000457763672,-25.80000114440918
294,1726865382.9535801,9.679313659667969,-0.35654330253601074,0.32782840728759766,3.8499999046325684,-4.130000114440918,-0.699999988079071,57.50105667114258,-10.765950202941895,49.995697021484375,9.753493309020996,-1.359171748161316,0.5958341360092163,-0.42000001668930054,-1.9600000381469727,-1.2599999904632568,20.25,-84.0,-26.400001525878906
295,1726865382.979221,9.743921279907227,-0.3445787727832794,0.3924369215965271,4.619999885559082,-4.059999942779541,-0.699999988079071,57.80463790893555,-11.899955749511719,48.2505989074707,9.7391357421875,-1.3448143005371094,0.6412993669509888,0.42000001668930054,-2.240000009536743,-1.399999976158142,19.5,-84.60000610351562,-27.30000114440918
296,1726865382.9771419,9.705635070800781,-0.21536172926425934,0.4331163763999939,4.619999885559082,-3.5,-0.8400000333786011,57.51311492919922,-8.123135566711426,49.62298583984375,9.81092357635498,-1.3711363077163696,0.7346227765083313,0.699999988079071,-2.309999942779541,-1.6800000667572021,19.950000762939453,-84.30000305175781,-26.850000381469727
297,1726865383.0027828,9.688884735107422,-0.31825676560401917,0.4139730930328369,3.8499999046325684,-3.640000104904175,-0.7699999809265137,56.67853927612305,-7.703920841217041,50.544002532958984,9.760672569274902,-1.433351993560791,0.6532639265060425,1.6800000667572021,-1.9600000381469727,-1.8899999856948853,20.55000114440918,-84.9000015258789,-27.000001907348633
298,1726865383.028424,9.710420608520508,-0.4331163763999939,0.44029510021209717,3.7100000381469727,-3.8499999046325684,-0.6299999952316284,59.43191909790039,-8.428228378295898,51.37846374511719,9.846817016601562,-1.3160994052886963,0.6412993669509888,2.1700000762939453,-1.8899999856948853,-1.6800000667572021,20.400001525878906,-84.9000015258789,-27.450000762939453
299,1726865383.088012,9.72238540649414,-0.4259376525878906,0.35893622040748596,5.320000171661377,-3.430000066757202,-0.49000000953674316,59.222129821777344,-7.07347297668457,50.91909408569336,,,,,,,,,
300,1726865383.054065,9.657776832580566,-0.23689790070056915,0.4546525478363037,6.300000190734863,-2.6600000858306885,-0.14000000059604645,57.6033821105957,-11.583760261535645,49.569671630859375,9.782208442687988,-1.3232781887054443,0.7035149931907654,2.240000009536743,-2.240000009536743,-1.4700000286102295,20.100000381469727,-85.80000305175781,-27.30000114440918
301,1726865383.052744,9.6697416305542,-0.20579010248184204,0.42833054065704346,5.740000247955322,-2.380000114440918,0.21000000834465027,57.33454895019531,-8.361729621887207,49.301513671875,9.81810188293457,-1.366350531578064,0.7250511646270752,2.380000114440918,-2.309999942779541,-1.4700000286102295,21.600000381469727,-84.30000305175781,-26.250001907348633
302,1726865383.0783849,9.65299129486084,-0.3134709596633911,0.5240468978881836,4.409999847412109,-1.6100000143051147,0.7699999809265137,59.73122024536133,-9.28335189819336,50.66413116455078,9.803744316101074,-1.387886643409729,0.7226582169532776,3.1500000953674316,-2.0299999713897705,-1.6100000143051147,20.100000381469727,-85.6500015258789,-27.750001907348633
303,1726865383.104026,9.688884735107422,-0.34697166085243225,0.4307234585285187,3.5,-1.3300000429153442,1.3300000429153442,56.947052001953125,-6.685822010040283,50.86286544799805,9.719992637634277,-1.4764243364334106,0.7298369407653809,4.480000019073486,-1.9600000381469727,-1.1200000047683716,18.30000114440918,-84.75,-26.250001907348633
304,1726865383.129667,9.729564666748047,-0.24886244535446167,0.39961564540863037,3.3600001335144043,-0.7699999809265137,1.5399999618530273,54.706607818603516,-8.730149269104004,47.57157897949219,9.770243644714355,-1.4405306577682495,0.7944455146789551,5.53000020980835,-2.240000009536743,-0.42000001668930054,20.700000762939453,-83.85000610351562,-27.30000114440918
305,1726865383.1274369,9.99278450012207,-0.09810923039913177,0.30868515372276306,0.2800000011920929,-0.9100000262260437,2.240000009536743,59.23276138305664,-10.271076202392578,49.65126419067383,9.772636413574219,-1.3639576435089111,0.7394086122512817,6.510000228881836,-2.309999942779541,0.5600000023841858,21.0,-84.75,-26.55000114440918
306,1726865383.1530778,9.894675254821777,-0.5790837407112122,0.5599405169487,-0.5600000023841858,-0.9100000262260437,2.870000123977661,58.065914154052734,-9.003677368164062,50.30430603027344,9.712814331054688,-1.1462029218673706,0.7035149931907654,5.25,-2.0299999713897705,0.699999988079071,20.55000114440918,-85.95000457763672,-28.350000381469727
307,1726865383.178719,9.820494651794434,-0.5551546812057495,0.6221560835838318,2.6600000858306885,-0.9800000190734863,3.640000104904175,56.403568267822266,-10.3233003616333,49.24039840698242,9.849209785461426,-1.3376356363296509,0.6700142621994019,0.14000000059604645,-1.2599999904632568,1.6800000667572021,20.100000381469727,-84.75,-26.400001525878906
308,1726865383.20436,9.892282485961914,-0.4833674430847168,0.40679436922073364,4.690000057220459,-1.8899999856948853,4.199999809265137,56.83091735839844,-10.111115455627441,50.81719970703125,10.18182373046875,-1.5649619102478027,0.7681235074996948,-0.9100000262260437,-0.3499999940395355,2.5899999141693115,20.25,-85.5,-27.000001907348633
309,1726865383.2605898,9.676919937133789,-0.44747382402420044,0.3326142132282257,5.039999961853027,-2.5899999141693115,4.269999980926514,56.512027740478516,-5.299700736999512,49.849815368652344,9.868352890014648,-1.844932198524475,0.6173703074455261,1.0499999523162842,-0.3499999940395355,2.7300000190734863,20.100000381469727,-85.35000610351562,-26.700000762939453
310,1726865383.286231,9.583597183227539,-0.36850783228874207,0.5025107264518738,3.7100000381469727,-2.240000009536743,4.550000190734863,54.74210739135742,-10.60237979888916,46.678714752197266,9.954497337341309,-1.8162171840667725,0.806410014629364,4.96999979019165,-0.21000000834465027,4.059999942779541,21.30000114440918,-83.85000610351562,-26.100000381469727
311,1726865383.311872,9.595561027526855,-0.5958341360092163,0.4546525478363037,2.0299999713897705,-2.6600000858306885,4.130000114440918,54.74210739135742,-10.60237979888916,46.678714752197266,9.918603897094727,-1.1820966005325317,0.4642241597175598,3.430000066757202,-0.07000000029802322,4.690000057220459,21.600000381469727,-84.0,-26.850000381469727
312,1726865383.3106709,9.590775489807129,-0.6724071502685547,0.3326142132282257,4.829999923706055,-3.8499999046325684,3.7100000381469727,56.12531280517578,-7.10325288772583,48.69158172607422,9.789386749267578,-1.7324655055999756,0.5982270240783691,0.0,-0.14000000059604645,5.320000171661377,20.400001525878906,-84.60000610351562,-27.900001525878906
313,1726865383.292436,9.617097854614258,-0.3350071310997009,0.3541503846645355,9.59000015258789,-4.900000095367432,3.009999990463257,59.590328216552734,-9.514015197753906,51.465301513671875,9.655384063720703,-1.7683590650558472,0.758551836013794,1.1200000047683716,-1.1200000047683716,5.039999961853027,20.700000762939453,-84.75,-25.650001525878906
314,1726865383.3180768,9.585989952087402,-0.0023929080925881863,0.5431901216506958,10.430000305175781,-3.9200000762939453,1.8899999856948853,58.39479064941406,-8.532437324523926,50.10526657104492,9.73195743560791,-1.3448143005371094,0.6724071502685547,6.300000190734863,-0.9100000262260437,3.8499999046325684,21.450000762939453,-85.80000305175781,-27.900001525878906
315,1726865383.343718,9.54052448272705,-0.03350071236491203,0.6724071502685547,6.789999961853027,-3.2200000286102295,0.6299999952316284,57.233543395996094,-6.223504066467285,49.400856018066406,9.712814331054688,-0.7609447836875916,0.4761887192726135,7.28000020980835,-0.2800000011920929,1.9600000381469727,20.700000762939453,-83.25,-28.80000114440918
316,1726865383.369359,9.617097854614258,-0.11725249886512756,0.6125844717025757,4.829999923706055,-2.870000123977661,-0.49000000953674316,57.9952392578125,-9.499343872070312,52.039329528808594,9.54052448272705,-0.8686256408691406,0.5551546812057495,6.650000095367432,-0.6299999952316284,0.21000000834465027,21.30000114440918,-85.05000305175781,-27.30000114440918
317,1726865383.367256,9.727170944213867,-0.09332341700792313,0.521653950214386,2.799999952316284,-2.0299999713897705,-1.3300000429153442,58.576751708984375,-9.61326789855957,50.89375305175781,9.569239616394043,-1.0672370195388794,0.758551836013794,7.769999980926514,-1.5399999618530273,-0.8400000333786011,19.80000114440918,-84.75,-27.900001525878906
318,1726865383.392897,9.674527168273926,-0.1411815732717514,0.5479759573936462,-0.5600000023841858,-1.1200000047683716,-1.5399999618530273,58.293785095214844,-6.394211292266846,50.20460891723633,9.641026496887207,-0.7633376717567444,0.8016242384910583,5.460000038146973,-2.5899999141693115,-1.1200000047683716,19.950000762939453,-84.60000610351562,-26.400001525878906
319,1726865383.418538,9.765458106994629,-0.32543548941612244,0.6149773597717285,-3.569999933242798,-0.49000000953674316,-1.2599999904632568,59.54793930053711,-9.522936820983887,50.20233154296875,9.789386749267578,-0.9284483194351196,0.746587336063385,0.14000000059604645,-3.7799999713897705,-0.8400000333786011,20.55000114440918,-85.95000457763672,-26.55000114440918
320,1726865383.444179,9.746315002441406,-0.46661707758903503,0.6173703074455261,-4.340000152587891,0.2800000011920929,-0.9800000190734863,54.859100341796875,-6.617341041564941,49.06657409667969,9.74870777130127,-1.3160994052886963,0.7848738431930542,-5.460000038146973,-4.269999980926514,-0.699999988079071,19.80000114440918,-84.60000610351562,-25.350000381469727
321,1726865383.4423418,9.719992637634277,-0.4761887192726135,0.5312256217002869,-3.3600001335144043,0.6299999952316284,-0.42000001668930054,60.02064514160156,-10.901127815246582,52.33802032470703,9.763065338134766,-1.5649619102478027,0.7370156645774841,-7.139999866485596,-4.550000190734863,-0.07000000029802322,20.100000381469727,-84.1500015258789,-27.150001525878906
322,1726865383.511934,9.638633728027344,-0.3924369215965271,0.5766908526420593,-3.569999933242798,0.8400000333786011,0.3499999940395355,58.3746337890625,-9.856818199157715,49.87063217163086,,,,,,,,,
323,1726865383.4679828,9.7391357421875,-0.5503688454627991,0.5264397859573364,-4.760000228881836,0.9100000262260437,1.3300000429153442,57.648841857910156,-8.654133796691895,51.350364685058594,9.698456764221191,-1.5410327911376953,0.5360113978385925,-5.670000076293945,-6.860000133514404,0.699999988079071,19.650001525878906,-83.25,-26.700000762939453
324,1726865383.493624,9.777422904968262,-0.1316099464893341,0.5575475692749023,-6.579999923706055,2.380000114440918,2.6600000858306885,58.16866683959961,-9.541614532470703,51.049373626708984,9.789386749267578,-2.0770442485809326,0.8734114766120911,-2.870000123977661,-6.789999961853027,2.240000009536743,20.850000381469727,-85.6500015258789,-26.700000762939453
325,1726865383.519265,9.71520709991455,0.14836029708385468,0.8853759765625,-12.039999961853027,6.720000267028809,3.0799999237060547,59.8326530456543,-11.141704559326172,51.73588562011719,9.595561027526855,-2.1177237033843994,0.6269419193267822,1.0499999523162842,-6.650000095367432,4.829999923706055,21.900001525878906,-84.1500015258789,-25.950000762939453
326,1726865383.577129,9.746315002441406,-0.035893622785806656,1.0528795719146729,-18.6200008392334,10.359999656677246,5.599999904632568,57.14445877075195,-6.443263053894043,51.74565505981445,9.837244987487793,-2.0052568912506104,0.4833674430847168,1.8899999856948853,-6.789999961853027,8.1899995803833,19.80000114440918,-85.35000610351562,-26.55000114440918
327,1726865383.6027699,9.942533493041992,0.181861013174057,1.0576653480529785,-26.809999465942383,14.210000038146973,8.609999656677246,54.95496368408203,-9.036431312561035,47.65580749511719,9.853995323181152,-2.699200391769409,0.8375178575515747,0.3499999940395355,-6.440000057220459,12.390000343322754,22.200000762939453,-85.80000305175781,-27.150001525878906
328,1726865383.610499,10.064571380615234,0.3230426013469696,1.2658483982086182,-38.56999969482422,18.690000534057617,10.850000381469727,57.27846145629883,-8.093751907348633,48.78864669799805,9.712814331054688,-2.584340810775757,1.1462029218673706,-1.6800000667572021,-6.019999980926514,21.139999389648438,21.0,-84.9000015258789,-25.80000114440918
329,1726865383.6361399,9.93056869506836,-0.05742979422211647,1.2203831672668457,-50.04999923706055,21.280000686645508,11.550000190734863,56.35515213012695,-11.653629302978516,48.163787841796875,9.760672569274902,-1.9597917795181274,1.0313433408737183,-7.840000152587891,-7.559999942779541,30.729999542236328,19.5,-86.70000457763672,-26.400001525878906
330,1726865383.607024,9.870745658874512,-0.6054057478904724,1.2706341743469238,-54.459999084472656,22.96000099182129,12.039999961853027,56.4155158996582,-12.200488090515137,47.6458854675293,9.932961463928223,-2.278048515319824,0.8542681932449341,-18.1299991607666,-10.779999732971191,39.27000045776367,21.0,-86.70000457763672,-26.100000381469727
331,1726865383.632665,9.590775489807129,-1.0074143409729004,1.2921704053878784,-50.61000061035156,23.170000076293945,12.319999694824219,57.17382049560547,-14.156904220581055,49.817344665527344,10.138751983642578,-3.244783401489258,0.8351249098777771,-24.360000610351562,-12.880000114440918,49.77000045776367,21.600000381469727,-85.5,-25.950000762939453
332,1726865383.6583061,9.547703742980957,-1.3687434196472168,1.1079164743423462,-41.790000915527344,21.559999465942383,13.230000495910645,59.29562759399414,-13.177902221679688,51.09816360473633,10.117215156555176,-4.077515602111816,1.0050214529037476,-17.360000610351562,-12.880000114440918,59.779998779296875,21.0,-87.1500015258789,-27.000001907348633
333,1726865383.683947,10.054999351501465,-0.5072965025901794,1.0457007884979248,-28.139999389648438,21.06999969482422,13.09000015258789,54.87137222290039,-12.734658241271973,47.421356201171875,9.861174583435059,-3.7329366207122803,0.7872667908668518,-8.260000228881836,-13.020000457763672,69.93000030517578,21.150001525878906,-87.9000015258789,-26.100000381469727
334,1726865383.6823218,9.92099666595459,-0.21775463223457336,1.2849916219711304,-25.1299991607666,21.6299991607666,11.899999618530273,58.5059928894043,-14.148139953613281,47.56700134277344,9.832459449768066,-3.6013267040252686,0.5264397859573364,-8.050000190734863,-12.8100004196167,78.19000244140625,21.75,-90.30000305175781,-26.250001907348633
335,1726865383.7079628,9.612311363220215,-0.5575475692749023,0.952377438545227,-28.700000762939453,17.219999313354492,11.34000015258789,53.395694732666016,-15.13412094116211,47.2862663269043,9.940139770507812,-4.230661392211914,0.18903973698616028,-14.140000343322754,-12.8100004196167,84.84000396728516,21.0,-91.6500015258789,-25.500001907348633
336,1726865383.733604,9.535738945007324,-0.5025107264518738,0.7513731122016907,-35.97999954223633,13.649999618530273,10.710000038146973,55.17024230957031,-13.869654655456543,45.535926818847656,10.397185325622559,-2.6369848251342773,-0.6412993669509888,-29.75,-14.279999732971191,97.51000213623047,18.900001525878906,-91.6500015258789,-23.55000114440918
337,1726865383.759245,9.262947082519531,-1.043307900428772,0.9093050956726074,-44.79999923706055,13.789999961853027,11.130000114440918,55.64722442626953,-15.526727676391602,46.640846252441406,10.110036849975586,-4.776244640350342,-0.07657305896282196,-40.67000198364258,-16.65999984741211,106.61000061035156,21.0,-93.30000305175781,-24.0
338,1726865383.757273,9.21030330657959,-1.7922881841659546,1.2514909505844116,-42.70000076293945,13.720000267028809,12.670000076293945,54.47434616088867,-15.580735206604004,47.48024368286133,9.516595840454102,-5.032285690307617,-0.13400284945964813,-33.810001373291016,-15.539999961853027,112.55999755859375,20.700000762939453,-94.6500015258789,-20.700000762939453
339,1726865383.782914,9.341913223266602,-2.136866807937622,1.5386399030685425,-29.610000610351562,14.980000495910645,14.140000343322754,54.632328033447266,-16.946395874023438,46.3959846496582,9.21987533569336,-5.396007537841797,-0.0909305065870285,-20.510000228881836,-13.789999961853027,115.36000061035156,19.200000762939453,-97.20000457763672,-19.350000381469727
340,1726865383.8085551,9.394556999206543,-1.8856115341186523,1.5027462244033813,-15.470000267028809,13.15999984741211,14.770000457763672,55.99744415283203,-17.411489486694336,48.967926025390625,8.894439697265625,-5.563511371612549,-0.16750356554985046,-7.28000020980835,-14.069999694824219,116.4800033569336,19.650001525878906,-98.4000015258789,-19.350000381469727
341,1726865383.834196,9.341913223266602,-1.8856115341186523,1.3759222030639648,-8.539999961853027,10.220000267028809,15.960000038146973,50.614837646484375,-17.895221710205078,42.89023971557617,8.726935386657715,-5.635298728942871,-0.5647262930870056,6.019999980926514,-16.309999465942383,116.27000427246094,19.5,-98.70000457763672,-17.55000114440918
342,1726865383.886945,9.265339851379395,-1.7540016174316406,1.3472073078155518,-6.230000019073486,8.119999885559082,16.59000015258789,51.88147735595703,-18.101261138916016,43.68634796142578,8.834616661071777,-6.1665239334106445,-0.27757734060287476,12.529999732971191,-18.059999465942383,117.25,18.75,-99.75000762939453,-17.400001525878906
