timestamp,RU_IMU9_Acc_X,RU_IMU9_Acc_Y,RU_IMU9_Acc_Z,RU_IMU9_Gyro_X,RU_IMU9_Gyro_Y,RU_IMU9_Gyro_Z,RU_IMU9_Magn_X,RU_IMU9_Magn_Y,RU_IMU9_Magn_Z,RF_IMU9_Acc_X,RF_IMU9_Acc_Y,RF_IMU9_Acc_Z,RF_IMU9_Gyro_X,RF_IMU9_Gyro_Y,RF_IMU9_Gyro_Z,RF_IMU9_Magn_X,RF_IMU9_Magn_Y,RF_IMU9_Magn_Z
1720095484.0850427,9.770243644714355,-1.6295703649520874,-0.205790102481842,-3.5,11.899999618530272,-8.75,158.1751708984375,-106.21536254882812,-185.58773803710932,9.837244987487791,-2.9743847846984863,0.8303391337394714,17.639999389648438,-13.510000228881836,-41.29999923706055,58.35000228881836,28.350000381469727,-24.900001525878903
1720095484.110684,9.935354232788086,-1.6870001554489136,-0.1411815732717514,-3.430000066757202,11.40999984741211,-7.070000171661377,160.521240234375,-110.34747314453124,-187.31723022460932,10.110036849975586,-2.945669889450073,0.8016242384910583,14.84000015258789,-13.440000534057615,-38.220001220703125,56.85000228881836,28.50000190734864,-25.950000762939453
1720095484.136325,9.40173625946045,-3.35964298248291,2.402479648590088,1.3300000429153442,0.9100000262260436,9.65999984741211,163.3648223876953,-100.77146911621094,-187.8817596435547,9.90424633026123,-2.837989091873169,0.5503688454627991,8.609999656677246,-10.359999656677246,-33.18000030517578,55.80000305175781,27.600000381469727,-25.05000114440918
1720095547.1556609,9.12415885925293,-3.304605960845948,2.3450498580932617,6.230000019073486,0.6299999952316284,11.550000190734863,162.26556396484375,-101.92911529541016,-189.48146057128903,5.429508686065674,-5.068179130554199,7.018399238586426,0.0,-2.799999952316284,-0.4900000095367431,47.10000228881836,14.250000953674316,-28.80000114440918
1720095547.1813018,8.94229793548584,-3.239997625350952,2.2995846271514893,8.119999885559082,-0.4900000095367431,11.6899995803833,159.49510192871094,-99.60848236083984,-190.0328369140625,5.4869384765625,-5.0418572425842285,6.9609694480896,0.5600000023841858,-2.799999952316284,-0.6299999952316284,47.55000305175781,15.000000953674316,-30.600000381469727
1720095547.206943,8.760436058044434,-3.2567479610443115,2.3067634105682373,7.490000247955322,-1.820000052452088,9.3100004196167,162.0189666748047,-100.02253723144533,-188.7212829589844,5.45104455947876,-5.221325397491455,7.0830078125,2.1700000762939453,-3.150000095367432,-0.6299999952316284,48.0,14.850000381469728,-30.150001525878903
1720095547.232584,8.717364311218262,-3.364428758621216,2.368978977203369,6.579999923706055,-2.5199999809265137,4.550000190734863,162.11996459960938,-102.1607666015625,-188.82061767578125,5.525224685668945,-5.252433300018311,6.853288650512695,4.269999980926514,-2.799999952316284,-0.7699999809265137,47.85000228881836,15.450000762939451,-31.650001525878903
1720095547.216092,8.729329109191895,-3.464931011199951,2.373764753341675,5.25,-2.5199999809265137,-1.1200000047683716,161.43309020996094,-103.66893768310548,-191.6067047119141,5.302684307098389,-4.993999004364014,6.927468776702881,6.019999980926514,-2.799999952316284,-0.7699999809265137,46.5,14.850000381469728,-28.50000190734864
1720095547.2417328,8.975798606872559,-3.378786325454712,2.395301103591919,2.6600000858306885,-1.9600000381469729,-6.159999847412109,161.67124938964844,-100.49774169921876,-189.08355712890625,5.312255859375,-4.82649564743042,7.1500091552734375,5.809999942779541,-4.199999809265137,-0.9100000262260436,46.35000228881836,16.5,-31.05000114440918
1720095547.267374,9.262947082519531,-3.441001892089844,2.491017341613769,0.2100000083446502,-1.0499999523162842,-8.890000343322754,159.9092254638672,-98.35872650146484,-190.37481689453125,5.396007537841797,-4.649420261383057,7.030364036560059,3.569999933242798,-4.480000019073486,-2.0299999713897705,48.0,13.950000762939451,-29.850000381469727
1720095547.293015,9.31319808959961,-3.484074115753174,2.598698139190674,-4.059999942779541,-0.9800000190734864,-7.28000020980835,159.33197021484375,-98.52368927001952,-190.259994506836,5.374471664428711,-5.2093610763549805,6.807823657989502,1.5399999618530271,-5.389999866485596,-2.0999999046325684,46.20000076293945,15.600000381469728,-29.55000114440918
1720095564.7366,9.258161544799805,-3.563040256500244,2.555625915527344,-6.300000190734863,-0.9100000262260436,-3.990000009536743,162.00779724121094,-101.62481689453124,-189.84634399414065,5.202182292938232,-5.003571033477783,6.896361351013184,2.380000114440918,-5.599999904632568,-3.849999904632568,47.85000228881836,15.750000953674316,-31.50000190734864
1720095564.737126,9.250982284545898,-3.577397584915161,2.5747690200805664,-6.579999923706055,-0.1400000005960464,-0.7699999809265137,160.7523193359375,-99.81649780273438,-189.5173797607422,5.419936656951904,-5.0418572425842285,6.77910852432251,2.799999952316284,-5.740000247955322,-4.619999885559082,47.25,15.90000057220459,-30.150001525878903
1720095564.7371,9.157659530639648,-3.5510756969451904,2.536482572555542,-4.199999809265137,0.5600000023841858,1.0499999523162842,160.2008514404297,-97.61553955078124,-190.525390625,5.39122200012207,-4.754708290100098,6.470423698425293,1.0499999523162842,-2.6600000858306885,-3.920000076293945,47.85000228881836,16.80000114440918,-29.400001525878903
1720095564.736852,9.0978364944458,-3.450573444366455,2.5029819011688232,0.1400000005960464,1.0499999523162842,1.680000066757202,161.19163513183594,-101.48150634765624,-189.5351104736328,5.424722671508789,-4.70445728302002,6.448887348175049,-0.8400000333786011,-0.4200000166893005,-3.0799999237060547,46.05000305175781,16.650001525878906,-30.00000190734864
1720095564.737253,9.13133716583252,-3.2902486324310303,2.536482572555542,4.480000019073486,0.9800000190734864,1.3300000429153442,159.25442504882812,-100.9005126953125,-190.6808013916016,5.367292881011963,-4.881532669067383,6.707321166992188,-1.2599999904632568,0.9800000190734864,-2.240000009536743,47.400001525878906,16.5,-31.650001525878903
1720095564.762894,9.191160202026367,-3.0509579181671143,2.481445789337158,7.420000076293945,1.0499999523162842,0.8400000333786011,163.47142028808594,-101.8681640625,-189.3385467529297,5.419936656951904,-4.958105564117432,7.130866050720215,-1.190000057220459,1.820000052452088,-1.8899999856948853,47.25,16.650001525878906,-30.600000381469727
1720095564.737227,9.27969741821289,-2.809274196624756,2.433587551116944,8.1899995803833,1.1200000047683716,0.4900000095367431,162.4308624267578,-101.1337432861328,-187.23878479003903,5.178253173828125,-4.934176445007324,7.382121562957764,-1.680000066757202,1.8899999856948853,-1.6100000143051147,46.5,15.300000190734863,-29.25000190734864
1720095564.7370248,9.174409866333008,-2.74227261543274,2.4503378868103027,7.490000247955322,1.1200000047683716,-0.4200000166893005,161.4632110595703,-97.5427017211914,-188.69851684570312,5.025106906890869,-4.962891578674316,7.372550010681152,-1.75,0.7699999809265137,-1.75,48.150001525878906,13.950000762939451,-30.600000381469727
1720095564.737434,9.126551628112791,-2.68245005607605,2.368978977203369,5.599999904632568,0.6299999952316284,-1.820000052452088,164.0721893310547,-101.69824981689452,-188.751708984375,4.972463130950928,-4.960498332977295,7.305548191070557,-1.1200000047683716,-1.3300000429153442,-2.1700000762939453,46.95000076293945,15.750000953674316,-30.450000762939453
1720095564.7630749,9.133729934692385,-2.6680924892425537,2.380943536758423,3.289999961853028,-0.0700000002980232,-3.289999961853028,159.3919219970703,-99.35041809082033,-191.9489898681641,5.068179130554199,-4.936569213867188,7.243332862854004,-0.4900000095367431,-3.569999933242798,-2.5199999809265137,47.400001525878906,15.450000762939451,-31.05000114440918
1720095564.737331,9.174409866333008,-2.7231295108795166,2.373764753341675,0.9800000190734864,-0.5600000023841858,-4.550000190734863,162.8149871826172,-101.490234375,-189.26715087890625,5.218932628631592,-4.881532669067383,7.133258819580078,-0.2800000011920929,-4.96999979019165,-2.5199999809265137,47.400001525878906,14.850000381469728,-31.350000381469727
1720095564.737151,9.205517768859863,-2.86431097984314,2.4000868797302246,-0.699999988079071,-0.5600000023841858,-5.110000133514404,159.38160705566406,-100.3929443359375,-190.7318725585937,5.293112754821777,-4.917426109313965,7.027971267700195,-0.4200000166893005,-5.949999809265137,-2.380000114440918,46.80000305175781,15.750000953674316,-31.50000190734864
1720095564.737485,9.152873039245604,-2.928919553756714,2.435980319976806,-2.380000114440918,-0.2100000083446502,-4.550000190734863,160.76614379882812,-95.57340240478516,-189.04568481445312,5.427115440368652,-4.941355228424072,6.855681896209717,-0.4900000095367431,-6.579999923706055,-1.75,46.95000076293945,15.15000057220459,-31.50000190734864
1720095564.763126,9.248589515686035,-3.0389933586120605,2.4503378868103027,-3.7100000381469727,-0.1400000005960464,-3.009999990463257,159.66217041015625,-96.73202514648438,-190.7857208251953,5.594619274139404,-4.970069885253906,6.688178062438965,-0.4200000166893005,-6.720000267028809,-1.2599999904632568,48.900001525878906,16.650001525878906,-28.950000762939453
1720095564.73746,9.31319808959961,-3.05574369430542,2.500588893890381,-4.409999847412109,0.0,-1.4700000286102295,159.22669982910156,-96.10658264160156,-189.1298828125,5.654441833496094,-4.934176445007324,6.635534286499023,-0.3499999940395355,-6.300000190734863,-0.7699999809265137,47.10000228881836,16.350000381469727,-30.150001525878903
1720095564.737278,9.298840522766112,-3.141888380050659,2.5532329082489014,-3.920000076293945,-0.0700000002980232,-0.1400000005960464,162.939208984375,-99.38336944580078,-188.6141357421875,5.745372295379639,-4.926997661590576,6.594854831695557,-0.5600000023841858,-5.599999904632568,-0.3499999940395355,46.80000305175781,14.550000190734863,-29.55000114440918
1720095564.762919,9.308412551879885,-3.1706032752990723,2.61305570602417,-2.870000123977661,0.0,0.7699999809265137,158.73251342773438,-97.37318420410156,-191.17352294921875,5.716657638549805,-4.852817535400391,6.64031982421875,-1.0499999523162842,-4.199999809265137,-0.0700000002980232,47.10000228881836,17.100000381469727,-31.200000762939453
1720095564.737656,9.21987533569336,-3.156245708465576,2.605876922607422,-1.9600000381469729,0.0700000002980232,1.820000052452088,163.3536376953125,-102.37374877929688,-189.0068206787109,5.740586280822754,-4.836067199707031,6.738429069519043,-2.0299999713897705,-2.6600000858306885,0.0700000002980232,47.25,15.15000057220459,-29.55000114440918
1720095564.7376258,9.243803977966309,-3.16821026802063,2.6298060417175293,-0.9100000262260436,0.0700000002980232,2.6600000858306885,163.9775390625,-102.47875213623048,-188.8894195556641,5.652049064636231,-5.027499675750732,6.846109867095947,-2.5199999809265137,-1.190000057220459,0.2100000083446502,48.150001525878906,15.90000057220459,-27.75000190734864
1720095564.7373848,9.20073127746582,-3.062922477722168,2.601091146469116,0.4900000095367431,-0.2800000011920929,2.940000057220459,157.6474151611328,-98.52784729003906,-192.35223388671875,5.496510028839111,-4.953319549560547,6.891575336456299,-1.680000066757202,-0.0700000002980232,-0.1400000005960464,46.650001525878906,16.200000762939453,-28.80000114440918
1720095564.7630258,9.150480270385742,-3.007885456085205,2.5460541248321533,1.6100000143051147,-0.4900000095367431,2.7300000190734863,159.17784118652344,-97.71678161621094,-191.3776092529297,5.360114097595215,-4.8097453117370605,6.95379114151001,-1.190000057220459,0.4900000095367431,-0.4900000095367431,47.400001525878906,16.5,-30.150001525878903
1720095564.737834,9.138516426086426,-2.9839563369750977,2.476659774780273,2.1700000762939453,-0.3499999940395355,2.309999942779541,159.16590881347656,-95.839599609375,-189.7830810546875,5.369685649871826,-4.852817535400391,6.989684581756592,-1.399999976158142,0.4900000095367431,-1.0499999523162842,47.400001525878906,14.700000762939451,-28.80000114440918
1720095564.737758,9.186373710632324,-2.902597427368164,2.373764753341675,2.5899999141693115,-0.5600000023841858,1.9600000381469729,159.60476684570312,-97.7844696044922,-190.97189331054688,5.34814977645874,-4.9078545570373535,7.027971267700195,-1.3300000429153442,0.2800000011920929,-1.680000066757202,47.10000228881836,15.90000057220459,-31.650001525878903
1720095564.737536,9.160052299499512,-2.8834543228149414,2.366586208343506,2.380000114440918,-0.9800000190734864,1.8899999856948853,160.2787322998047,-99.47885131835938,-190.15528869628903,5.357721328735352,-5.063393592834473,7.059078693389893,-0.6299999952316284,-0.699999988079071,-1.820000052452088,46.35000228881836,14.850000381469728,-31.200000762939453
1720095564.763177,9.174409866333008,-2.91695499420166,2.4407663345336914,0.9800000190734864,-1.4700000286102295,1.820000052452088,160.4698028564453,-96.31757354736328,-189.03543090820312,5.357721328735352,-5.010749340057373,6.968148231506348,0.1400000005960464,-1.2599999904632568,-2.0299999713897705,46.95000076293945,14.850000381469728,-31.05000114440918
1720095564.737908,9.167230606079102,-2.9265265464782715,2.4216229915618896,-1.190000057220459,-1.820000052452088,1.820000052452088,160.96945190429688,-98.52943420410156,-189.5710601806641,5.372078895568848,-4.926997661590576,6.929862022399902,0.2100000083446502,-2.240000009536743,-1.8899999856948853,47.10000228881836,16.350000381469727,-30.900001525878903
1720095564.7378588,9.195945739746094,-3.000706672668457,2.467088222503662,-3.3600001335144043,-1.820000052452088,1.820000052452088,158.74050903320312,-103.2116241455078,-191.78797912597656,5.419936656951904,-4.950926780700684,6.817395210266113,-0.4900000095367431,-2.5199999809265137,-1.5399999618530271,47.10000228881836,16.350000381469727,-30.450000762939453
1720095564.737681,9.258161544799805,-3.084458589553833,2.476659774780273,-4.340000152587891,-1.4700000286102295,1.820000052452088,160.05906677246094,-98.88674926757812,-188.2264404296875,5.463009357452393,-5.017928123474121,6.771929740905762,-0.9800000190734864,-2.870000123977661,-1.1200000047683716,47.85000228881836,16.05000114440918,-30.00000190734864
1720095564.763322,9.207910537719728,-3.2064969539642334,2.5245180130004883,-4.130000114440918,-1.75,1.820000052452088,160.90777587890625,-99.30298614501952,-188.7264709472656,5.463009357452393,-4.998785018920898,6.800644874572754,-0.9100000262260436,-3.009999990463257,-0.5600000023841858,48.150001525878906,15.750000953674316,-31.05000114440918
1720095564.7380288,9.212696075439451,-3.2017109394073486,2.522125244140625,-2.7300000190734863,-1.9600000381469729,1.9600000381469729,163.23072814941406,-103.16018676757812,-189.9865264892578,5.484545230865479,-4.924604892730713,6.831752777099609,-0.9800000190734864,-2.6600000858306885,-0.2800000011920929,46.95000076293945,16.950000762939453,-29.100000381469727
1720095564.738004,9.239018440246582,-3.187353610992432,2.51733922958374,-1.5399999618530271,-2.309999942779541,2.0999999046325684,157.23033142089844,-98.17830657958984,-191.30618286132807,5.467794895172119,-4.955712795257568,6.829359531402588,-1.1200000047683716,-2.309999942779541,-0.1400000005960464,47.25,14.700000762939451,-30.75000190734864
1720095564.737809,9.243803977966309,-3.120352268218994,2.51733922958374,-0.9100000262260436,-1.8899999856948853,2.240000009536743,160.2799530029297,-102.6784439086914,-191.7037811279297,5.4869384765625,-4.874353885650635,6.850895881652832,-1.2599999904632568,-1.6100000143051147,-0.0700000002980232,48.0,15.300000190734863,-30.150001525878903
1720095564.76345,9.250982284545898,-3.103601694107056,2.486231565475464,-1.0499999523162842,-1.820000052452088,2.5199999809265137,162.4335174560547,-98.49291229248048,-187.8921661376953,5.4869384765625,-5.015535354614258,6.87482500076294,-1.4700000286102295,-1.190000057220459,-0.1400000005960464,46.95000076293945,16.5,-29.850000381469727
1720095564.7382228,9.181588172912598,-3.0868513584136963,2.438373327255249,-1.4700000286102295,-1.8899999856948853,2.5899999141693115,161.96505737304688,-97.87439727783205,-187.21864318847656,5.443865776062012,-4.998785018920898,6.855681896209717,-0.9100000262260436,-0.699999988079071,-0.1400000005960464,47.55000305175781,18.450000762939453,-30.30000114440918
1720095564.7381258,9.20073127746582,-3.070101022720337,2.376157760620117,-2.309999942779541,-1.6100000143051147,2.240000009536743,161.10475158691406,-99.34030151367188,-189.0147705078125,5.388829231262207,-4.950926780700684,6.865253448486328,-0.9800000190734864,-0.4200000166893005,-0.2100000083446502,46.650001525878906,15.300000190734863,-30.00000190734864
1720095564.737933,9.205517768859863,-3.0509579181671143,2.380943536758423,-3.3600001335144043,-1.4700000286102295,1.75,163.56903076171875,-102.6869659423828,-189.9049072265625,5.398400783538818,-4.936569213867188,6.85807466506958,-1.399999976158142,-0.5600000023841858,-0.5600000023841858,46.650001525878906,16.200000762939453,-30.30000114440918
1720095564.738175,9.203125,-3.120352268218994,2.3522286415100098,-3.990000009536743,-1.2599999904632568,1.3300000429153442,160.69448852539062,-101.14881134033205,-190.87466430664065,5.35532808303833,-4.917426109313965,6.913111686706543,-1.2599999904632568,-0.4900000095367431,-0.5600000023841858,46.05000305175781,16.350000381469727,-28.80000114440918
1720095564.7382948,9.250982284545898,-3.153852939605713,2.4144442081451416,-3.640000104904175,-1.3300000429153442,1.1200000047683716,160.4838104248047,-100.8345947265625,-189.83624267578125,5.424722671508789,-5.003571033477783,6.937040328979492,-1.399999976158142,-0.7699999809265137,-0.4200000166893005,48.60000228881836,15.90000057220459,-29.850000381469727
1720095564.738246,9.265339851379396,-3.1921393871307373,2.376157760620117,-3.009999990463257,-1.190000057220459,1.1200000047683716,159.40133666992188,-99.3484344482422,-191.6683349609375,5.410365104675293,-4.96528434753418,6.929862022399902,-1.4700000286102295,-1.0499999523162842,-0.2800000011920929,46.80000305175781,14.40000057220459,-30.30000114440918
1720095564.738052,9.262947082519531,-3.1849606037139893,2.4000868797302246,-2.450000047683716,-1.190000057220459,1.3300000429153442,161.3568572998047,-104.725341796875,-192.3542022705078,5.376864433288574,-4.955712795257568,6.891575336456299,-1.6100000143051147,-1.399999976158142,-0.2100000083446502,47.10000228881836,17.100000381469727,-28.950000762939453
1720095564.7636929,9.327555656433104,-3.1490671634674072,2.380943536758423,-2.309999942779541,-0.5600000023841858,1.5399999618530271,160.25900268554688,-100.52335357666016,-189.2188262939453,5.3649001121521,-5.005963802337647,6.841324329376221,-1.75,-1.820000052452088,-0.0700000002980232,46.80000305175781,16.350000381469727,-29.400001525878903
1720095564.738344,9.308412551879885,-3.156245708465576,2.3522286415100098,-2.309999942779541,-0.3499999940395355,1.5399999618530271,160.6868133544922,-99.55050659179688,-190.3109130859375,5.40797233581543,-4.984427452087402,6.855681896209717,-2.0299999713897705,-1.680000066757202,0.0,47.400001525878906,15.600000381469728,-30.00000190734864
1720095564.7381988,9.265339851379396,-3.1083877086639404,2.4072654247283936,-2.240000009536743,-0.4200000166893005,1.3300000429153442,161.10003662109375,-99.34129333496094,-189.1551055908203,5.417543888092041,-4.972463130950928,6.838931560516357,-2.240000009536743,-1.4700000286102295,0.1400000005960464,46.35000228881836,15.750000953674316,-28.950000762939453
1720095564.738149,9.253376007080078,-3.105994701385498,2.3570144176483154,-2.940000057220459,-0.2800000011920929,1.399999976158142,161.14791870117188,-102.81084442138672,-190.4713897705078,5.3864359855651855,-5.020321369171143,6.882003784179688,-2.0299999713897705,-1.2599999904632568,0.0,47.70000076293945,16.5,-29.25000190734864
1720095564.76379,9.246196746826172,-3.1251380443573,2.3354783058166504,-3.0799999237060547,-0.2100000083446502,1.6100000143051147,160.2787322998047,-99.47885131835938,-190.15528869628903,5.396007537841797,-5.032285690307617,6.87482500076294,-1.75,-1.1200000047683716,-0.1400000005960464,46.05000305175781,14.40000057220459,-30.00000190734864
1720095564.7384818,9.224660873413086,-3.153852939605713,2.347442865371704,-2.799999952316284,-0.4200000166893005,1.6100000143051147,161.0516357421875,-100.67162322998048,-190.23171997070312,5.439080238342285,-5.046643257141113,6.915504455566406,-1.680000066757202,-1.0499999523162842,-0.1400000005960464,48.75000381469727,14.850000381469728,-30.900001525878903
1720095564.7384138,9.250982284545898,-3.1777820587158203,2.3235137462615967,-1.680000066757202,-0.4900000095367431,1.3300000429153442,163.0175323486328,-100.96680450439452,-187.07293701171875,5.357721328735352,-5.027499675750732,6.898754119873047,-0.9800000190734864,-1.0499999523162842,-0.3499999940395355,46.80000305175781,16.05000114440918,-30.75000190734864
1720095564.73832,9.334734916687012,-3.1012089252471924,2.3785505294799805,-0.9100000262260436,0.5600000023841858,1.399999976158142,160.70433044433594,-100.86695098876952,-189.4228973388672,5.384043216705322,-5.022714138031006,6.862860202789307,-0.9100000262260436,-0.9800000190734864,-0.2100000083446502,47.400001525878906,15.750000953674316,-30.150001525878903
1720095564.7639608,9.341913223266602,-3.0030996799468994,2.529303789138794,-2.799999952316284,2.0999999046325684,1.6100000143051147,157.13821411132812,-100.83797454833984,-193.319076538086,5.352935314178467,-5.068179130554199,6.889182567596436,-1.2599999904632568,-0.9800000190734864,-0.2100000083446502,47.400001525878906,16.5,-30.600000381469727
1720095564.7385778,9.310805320739746,-2.945669889450073,2.5269110202789307,-7.28000020980835,3.7100000381469727,1.75,158.61891174316406,-102.67765045166016,-193.0943756103516,5.329006195068359,-5.099287033081055,6.882003784179688,-1.3300000429153442,-1.399999976158142,-0.2100000083446502,48.0,17.25,-30.00000190734864
1720095564.7384598,9.30601978302002,-3.141888380050659,2.416837215423584,-9.800000190734863,4.199999809265137,1.680000066757202,161.22723388671875,-98.83373260498048,-189.20616149902344,5.396007537841797,-5.159110069274902,6.867646217346191,-0.8400000333786011,-1.680000066757202,-0.4900000095367431,47.400001525878906,15.000000953674316,-30.30000114440918
1720095564.738437,9.298840522766112,-3.376393318176269,2.366586208343506,-8.539999961853027,3.920000076293945,2.0299999713897705,159.62525939941406,-100.7002182006836,-190.78797912597656,5.374471664428711,-5.116037368774414,6.853288650512695,-0.2100000083446502,-1.5399999618530271,-0.4900000095367431,46.5,16.5,-30.450000762939453
1720095564.764078,9.423272132873535,-3.1777820587158203,2.6465563774108887,-5.320000171661377,5.320000171661377,1.75,162.43942260742188,-101.69151306152344,-189.30032348632807,5.360114097595215,-5.106465816497803,6.915504455566406,0.2100000083446502,-1.680000066757202,-0.4900000095367431,47.25,15.750000953674316,-30.450000762939453
1720095564.73872,9.542917251586914,-2.754237174987793,2.9767775535583496,-5.460000038146973,9.9399995803833,-0.5600000023841858,160.53988647460938,-101.10257720947266,-189.3233795166016,5.388829231262207,-4.998785018920898,6.913111686706543,-0.2100000083446502,-1.75,-0.4900000095367431,45.900001525878906,15.450000762939451,-29.700000762939453
1720095564.73853,9.913818359375,-2.730308055877685,3.3069989681243896,-8.119999885559082,14.210000038146973,-6.369999885559082,159.35203552246094,-101.71931457519533,-191.2471618652344,5.305077075958252,-5.101680278778076,6.920289993286133,-0.0700000002980232,-1.820000052452088,-0.699999988079071,47.400001525878906,16.350000381469727,-29.25000190734864
1720095564.7385058,10.172252655029297,-2.8212387561798096,3.7999379634857178,-8.329999923706055,18.6200008392334,-12.739999771118164,159.8856658935547,-98.36367797851562,-191.0764617919922,5.384043216705322,-5.195003509521484,6.90114688873291,0.9800000190734864,-2.0299999713897705,-0.699999988079071,45.900001525878906,15.15000057220459,-27.75000190734864
1720095564.7641468,10.00953483581543,-2.761415958404541,4.297662734985352,-2.1700000762939453,24.43000030517578,-26.25,161.15274047851562,-98.28984832763672,-189.1092529296875,5.4869384765625,-5.35532808303833,6.925076007843018,3.3600001335144043,-2.380000114440918,-0.7699999809265137,47.70000076293945,15.600000381469728,-29.700000762939453
1720095564.7388828,10.014320373535156,-2.802095413208008,4.460380554199219,11.0600004196167,35.06999969482422,-38.9900016784668,160.36825561523438,-98.97921752929688,-191.32899475097656,5.412757873535156,-4.960498332977295,6.850895881652832,4.619999885559082,-1.9600000381469729,-0.9100000262260436,46.95000076293945,15.90000057220459,-29.700000762939453
1720095564.738696,9.717599868774414,-2.51733922958374,3.9387266635894775,29.049999237060547,46.060001373291016,-44.310001373291016,159.29815673828125,-99.09037017822266,-193.58450317382807,5.2811479568481445,-4.812138080596924,6.951397895812988,4.130000114440918,-2.309999942779541,-0.699999988079071,46.650001525878906,13.950000762939451,-30.900001525878903
1720095564.7386258,9.468737602233888,-1.9238981008529663,3.175389051437378,41.29999923706055,49.77000045776367,-48.58000183105469,159.70074462890625,-95.68355560302734,-191.16085815429688,5.321827411651611,-4.86956787109375,7.080615043640137,2.5899999141693115,-3.220000028610229,-0.3499999940395355,46.05000305175781,15.450000762939451,-30.00000190734864
1720095564.7642667,9.602740287780762,-1.531461238861084,2.859525203704834,38.84999847412109,47.59999847412109,-54.7400016784668,158.9556884765625,-94.76471710205078,-191.41354370117188,5.635298728942871,-5.75494384765625,7.616626262664795,4.619999885559082,-6.230000019073486,0.0700000002980232,46.5,14.550000190734863,-29.55000114440918
1720095564.7389538,9.990391731262209,-1.2155972719192505,2.8547394275665283,29.540000915527344,48.15999984741211,-59.92000198364258,161.42730712890625,-95.46955108642578,-192.8167266845703,6.109094142913818,-6.295741081237793,7.820023536682129,13.15999984741211,-9.59000015258789,-1.1200000047683716,47.10000228881836,16.350000381469727,-28.80000114440918
1720095564.7387888,10.117215156555176,-0.727444052696228,3.08206558227539,15.609999656677246,52.150001525878906,-63.4900016784668,158.3519744873047,-92.85453033447266,-195.13629150390625,6.709714412689209,-6.841324329376221,7.774558544158935,28.350000381469727,-12.460000038146973,1.3300000429153442,48.900001525878906,16.650001525878906,-29.55000114440918
1720095564.7387648,9.906639099121094,-0.8279461860656738,3.3069989681243896,-2.940000057220459,55.58000183105469,-62.29999923706055,157.4523162841797,-91.8894500732422,-193.83770751953125,7.2050461769104,-7.492195129394531,8.078457832336426,48.369998931884766,-17.920000076293945,2.6600000858306885,47.10000228881836,15.600000381469728,-29.25000190734864
1720095564.7644055,9.684099197387695,-1.32806396484375,3.426644325256348,-21.770000457763672,60.900001525878906,-59.08000183105469,159.92352294921875,-92.87415313720705,-196.41197204589844,9.466344833374023,-7.374942779541016,7.252904415130615,45.9900016784668,-34.02000045776367,19.11000061035156,46.5,15.90000057220459,-30.150001525878903
1720095564.738859,9.547703742980955,-1.742037057876587,3.613291263580322,-35.90999984741211,63.97999954223633,-55.29999923706055,155.8563995361328,-91.95372772216795,-199.44583129882807,8.889653205871582,-6.2502760887146,6.95379114151001,47.459999084472656,-18.1299991607666,41.43999862670898,47.70000076293945,16.950000762939453,-29.700000762939453
1720095564.7388349,9.329948425292969,-1.6846072673797607,3.596540927886963,-48.43999862670898,62.369998931884766,-51.79999923706055,160.64501953125,-93.79795837402344,-196.8609313964844,8.059314727783203,-4.893496990203857,7.317512989044189,49.06999969482422,-19.040000915527344,53.900001525878906,48.30000305175781,16.05000114440918,-31.350000381469727
1720095564.7644758,9.475915908813477,-2.28283429145813,3.491252899169922,-60.68999862670898,58.17000198364258,-42.97999954223633,158.13267517089844,-95.5409698486328,-200.93809509277344,8.310569763183594,-3.4457876682281494,7.9707770347595215,30.100000381469727,-20.09000015258789,68.25,46.95000076293945,15.750000953674316,-31.650001525878903
1720095564.790117,9.049978256225586,-3.357249975204468,3.6204700469970703,-67.9000015258789,55.22999954223633,-28.489999771118164,154.0575408935547,-89.26289367675781,-199.5175323486328,7.86548900604248,-3.589362144470215,7.793701648712158,-2.450000047683716,-14.06999969482422,80.5,46.20000076293945,15.750000953674316,-30.00000190734864
1720095564.739046,8.51636028289795,-4.297662734985352,3.893261432647705,-63.84000015258789,52.290000915527344,-12.460000038146973,155.95838928222656,-88.53141021728516,-199.8211669921875,6.793466091156006,-4.20194673538208,8.205282211303711,-34.650001525878906,-1.9600000381469729,90.86000061035156,46.35000228881836,15.300000190734863,-29.850000381469727
1720095564.738977,7.982741355895996,-4.572847366333008,4.067943572998047,-50.18999862670898,45.56999969482422,5.389999866485596,153.78684997558594,-92.16114807128906,-201.85189819335932,6.173702716827393,-4.335949420928955,7.930097579956055,-63.77000045776367,5.599999904632568,98.6999969482422,44.85000228881836,12.300000190734863,-29.25000190734864
1720095564.764618,7.566375255584717,-4.572847366333008,3.795152187347412,-34.369998931884766,37.09999847412109,23.100000381469727,152.3694610595703,-92.4676284790039,-203.2985992431641,5.027499675750732,-5.381650447845459,8.305784225463867,-94.1500015258789,8.960000038146973,107.37999725341795,42.75,11.550000190734863,-25.650001525878903
1720095564.7902591,7.592697143554687,-4.417308330535889,3.843010425567627,-24.07999992370605,26.670000076293945,39.20000076293945,152.60972595214844,-91.45548248291016,-203.8217163085937,4.840853214263916,-6.465637683868408,8.638398170471191,-116.5500030517578,7.559999942779541,113.88999938964844,44.85000228881836,10.65000057220459,-26.25000190734864
1720095564.739143,7.78652286529541,-4.252197742462158,3.742508172988892,-18.479999542236328,15.119999885559082,55.09000015258789,153.1218719482422,-90.7446517944336,-203.5589599609375,4.082301139831543,-6.688178062438965,9.057157516479492,-130.89999389648438,10.289999961853027,122.70999908447266,42.0,9.15000057220459,-20.850000381469727
1720095564.7390928,7.788915634155273,-4.087087154388428,3.503217458724976,-17.989999771118164,3.7799999713897705,70.13999938964844,152.64697265625,-91.72742462158205,-203.87017822265625,2.7087719440460205,-6.355564117431641,8.68147087097168,-149.3800048828125,14.770000457763672,134.0500030517578,42.30000305175781,7.200000286102295,-18.900001525878903
1720095564.7647338,7.779344081878662,-4.0152997970581055,3.385964870452881,-19.809999465942383,-9.520000457763672,84.27999877929688,152.9774932861328,-94.1759033203125,-204.44659423828125,0.7776951193809509,-6.403421878814697,7.56158971786499,-168.97999572753906,16.520000457763672,144.5500030517578,41.70000076293945,7.200000286102295,-15.600000381469728
1720095564.790375,7.898989677429199,-4.072729587554932,3.338106870651245,-22.88999938964844,-20.15999984741211,98.3499984741211,152.4403533935547,-100.73210144042967,-206.3061370849609,-0.825553297996521,-6.714499950408936,6.348385334014893,-179.8300018310547,11.130000114440918,154.55999755859375,39.150001525878906,5.100000381469727,-14.100000381469728
1720095564.7392368,7.903775215148926,-4.541739463806152,3.153852939605713,-25.690000534057617,-26.950000762939453,108.91999816894533,155.5316925048828,-97.2238540649414,-201.49935913085932,-0.9978426694869996,-6.8054304122924805,5.903304100036621,-190.6800079345703,6.019999980926514,158.41000366210938,37.5,3.300000190734864,-7.950000286102295
1720095564.7393138,7.937276363372803,-5.168681621551514,3.4816813468933105,-28.770000457763672,-36.2599983215332,116.27000427246094,155.11373901367188,-97.43405151367188,-202.7955017089844,-2.2038683891296387,-6.982505798339844,5.2093610763549805,-188.9300079345703,9.59000015258789,159.80999755859375,33.900001525878906,1.2000000476837158,-3.900000095367432
1720095564.7649548,8.028206825256348,-5.4869384765625,3.816688299179077,-23.59000015258789,-48.58000183105469,121.66000366210938,153.06292724609375,-102.1575164794922,-205.862045288086,-3.345285415649414,-7.547232151031494,4.582418918609619,-172.69000244140625,7.980000019073486,161.83999633789062,32.85000228881836,0.6000000238418579,1.2000000476837158
1720095564.790596,8.205282211303711,-5.92962646484375,3.8980472087860094,-4.550000190734863,-57.959999084472656,123.97000122070312,152.99696350097656,-102.65219116210938,-203.9866943359375,-3.19453239440918,-8.636005401611328,4.111016273498535,-142.4499969482422,4.760000228881836,159.8800048828125,31.350000381469727,-0.1500000059604644,4.800000190734863
1720095564.7395818,8.449358940124512,-5.683156490325928,4.333556652069092,37.65999984741211,-60.20000076293945,123.34000396728516,155.563232421875,-103.0573272705078,-201.41217041015625,-3.374000310897827,-9.535738945007324,3.4673237800598145,-101.77999877929688,15.050000190734863,150.99000549316406,28.50000190734864,-1.8000000715255735,9.450000762939451
1720095564.7393398,8.736507415771484,-5.427115440368652,3.924369335174561,50.2599983215332,-57.68000030517578,124.25,155.21800231933594,-105.89250183105467,-199.8096466064453,-3.668328046798706,-10.26796817779541,3.2017109394073486,-59.709999084472656,30.380001068115234,133.83999633789062,27.00000190734864,-2.400000095367432,13.200000762939451
1720095564.7649808,8.571396827697754,-5.7860517501831055,3.508003234863281,52.84999847412109,-59.150001525878906,120.81999969482422,156.6617889404297,-111.70036315917967,-199.58718872070312,-4.309627532958984,-9.01887035369873,3.457752227783203,-19.31999969482422,44.09999847412109,105.0,25.80000114440918,-2.8500001430511475,14.40000057220459
1720095564.7395098,7.932490348815918,-5.422329902648926,3.47210955619812,53.970001220703125,-66.91999816894531,116.34000396728516,156.02932739257812,-111.03759765625,-197.6430511474609,-4.86956787109375,-7.8463454246521,3.137102603912353,14.980000495910645,43.400001525878906,80.98999786376953,22.950000762939453,-3.900000095367432,15.90000057220459
1720095564.7651508,7.82959508895874,-5.419936656951904,3.4673237800598145,61.11000061035156,-74.2699966430664,111.2300033569336,152.26109313964844,-111.25215911865234,-202.56234741210932,-4.017692565917969,-7.619019508361816,2.558018684387207,40.67000198364258,32.40999984741211,60.40999984741211,24.0,-4.050000190734863,15.000000953674316
1720095564.7394848,8.255533218383789,-5.163895606994629,3.479288339614868,68.87999725341797,-72.44999694824219,105.27999877929688,154.99131774902344,-112.1823501586914,-197.41845703125,-3.1993181705474854,-8.06410026550293,2.19668960571289,64.19000244140625,32.689998626708984,36.68000030517578,23.400001525878903,-5.25,15.600000381469728
1720095564.7651258,8.423036575317383,-5.063393592834473,3.1442811489105225,72.59000396728516,-61.67000198364258,99.19000244140624,156.8179931640625,-115.14710998535156,-197.67588806152344,-3.364428758621216,-8.052135467529297,1.8856115341186523,87.77999877929688,36.75,13.369999885559082,22.200000762939453,-3.900000095367432,13.800000190734863
1720095564.7396288,7.824809551239014,-5.290719985961914,3.433823108673096,56.90999984741211,-53.68999862670898,91.84000396728516,155.7491912841797,-114.41864013671876,-196.4180908203125,-3.330928087234497,-7.3797287940979,1.7563945055007937,96.11000061035156,29.540000915527344,-1.8899999856948853,21.75,-3.150000095367432,13.350000381469728
1720095564.73989,7.374942779541016,-4.831281661987305,3.7831876277923584,37.17000198364258,-54.11000061035156,85.26000213623047,156.78457641601562,-115.91471862792967,-195.9893035888672,-2.5053746700286865,-6.1378092765808105,2.290013074874878,76.09000396728516,21.280000686645508,-12.18000030517578,21.600000381469727,-3.300000190734864,12.450000762939451
1720095564.7396529,7.032756805419922,-5.106465816497803,3.816688299179077,34.29999923706055,-55.58000183105469,81.9000015258789,155.2078857421875,-116.17595672607422,-196.02505493164065,-2.249333620071411,-4.9006757736206055,2.823631525039673,38.36000061035156,19.25,-18.1299991607666,21.75,-3.300000190734864,8.700000762939453
1720095564.7652938,7.0830078125,-5.549153804779053,3.42903733253479,36.540000915527344,-52.77999877929688,77.55999755859375,155.6240692138672,-117.5660400390625,-195.5733337402344,-2.093794584274292,-5.661620616912842,3.4051082134246826,-2.0999999046325684,14.420000076293944,-20.15999984741211,22.05000114440918,-3.0,8.700000762939453
1720095564.739702,7.57834005355835,-6.056450366973877,3.2208542823791504,37.2400016784668,-49.34999847412109,72.5199966430664,154.02427673339844,-117.55236053466795,-195.1396331787109,-0.9978426694869996,-9.440022468566896,2.3522286415100098,-19.600000381469727,7.070000171661377,-21.13999938964844,22.5,-3.750000238418579,7.050000190734863
1720095564.740011,7.587911605834961,-6.262240409851074,3.266319513320923,26.739999771118164,-47.11000061035156,69.37000274658203,154.00279235839844,-120.19715118408205,-195.04757690429688,0.727444052696228,-13.316533088684082,2.325906753540039,24.36000061035156,8.960000038146973,-32.20000076293945,22.950000762939453,-1.950000047683716,8.550000190734863
1720095564.7397258,6.972934246063232,-5.953555107116699,3.98419189453125,24.36000061035156,-47.040000915527344,64.19000244140625,155.9742889404297,-119.45079803466795,-193.24624633789065,0.6365135312080383,-12.160758972167969,3.0964231491088867,103.87999725341795,29.1200008392334,-50.04999923706055,23.100000381469727,-1.5,6.750000476837158
1720095564.7653668,6.690570831298828,-5.879374980926514,3.912404775619507,38.290000915527344,-49.70000076293945,54.59999847412109,155.68736267089844,-120.1929931640625,-192.9553375244141,-1.170132040977478,-8.097600936889648,3.4745025634765625,159.9499969482422,31.63999938964844,-52.92000198364258,24.450000762939453,-2.25,5.25
1720095564.739843,6.934647560119629,-6.247882843017578,3.61089825630188,50.81999969482422,-46.7599983215332,47.38999938964844,156.18704223632812,-122.40485382080078,-193.490951538086,-0.8399107456207275,-5.963127136230469,3.5247535705566406,150.0800018310547,14.279999732971191,-42.84000015258789,24.900001525878903,0.6000000238418579,1.0500000715255735
1720095564.7401595,6.925076007843018,-6.831752777099609,3.2136754989624023,49.70000076293945,-38.84999847412109,48.02000045776367,152.96356201171875,-118.14231872558594,-193.2745056152344,1.4979604482650757,-7.69080638885498,4.039228916168213,84.0,0.9100000262260436,-35.42000198364258,26.25000190734864,1.0500000715255735,-5.100000381469727
1720095564.739867,6.558960914611816,-6.709714412689209,3.084458589553833,39.83000183105469,-35.84000015258789,49.4900016784668,152.241943359375,-121.738525390625,-194.04733276367188,1.3902796506881714,-8.468502044677734,4.874353885650635,23.59000015258789,-0.4200000166893005,-40.31999969482422,25.950000762939453,1.0500000715255735,-4.5
1720095564.765508,6.310098648071289,-6.602033615112305,3.730543613433838,34.86000061035156,-40.040000915527344,49.06999969482422,153.0726776123047,-121.59899139404295,-192.76649475097656,0.4211518168449402,-8.408679008483887,5.262004852294922,0.3499999940395355,-3.009999990463257,-44.72999954223633,24.900001525878903,0.4500000178813934,-6.300000190734863
1720095564.739962,6.470423698425293,-6.642713069915772,4.10623025894165,38.08000183105469,-42.42000198364258,48.369998931884766,155.36734008789062,-125.9429168701172,-191.028549194336,0.4211518168449402,-8.277069091796875,4.5489182472229,0.3499999940395355,-9.869999885559082,-45.0099983215332,26.700000762939453,1.2000000476837158,-6.150000095367432
1720095564.7402368,6.417779445648193,-6.133023262023926,4.075122356414795,36.04999923706055,-36.470001220703125,45.290000915527344,154.2061004638672,-123.6339874267578,-191.73297119140625,1.7300724983215332,-9.231839179992676,3.816688299179077,0.2100000083446502,-10.56999969482422,-41.790000915527344,25.50000190734864,0.75,-6.0
1720095564.739986,6.238311290740967,-5.570690155029297,3.960262775421143,25.34000015258789,-28.979999542236328,39.900001525878906,152.9612579345703,-125.02328491210938,-192.6718292236328,2.6537351608276367,-9.456772804260254,4.831281661987305,-7.769999980926514,0.3499999940395355,-38.77999877929688,27.600000381469727,0.0,-8.25
1720095564.765627,6.329241752624512,-6.085165500640869,3.584576368331909,12.529999732971191,-26.040000915527344,34.15999984741211,151.96444702148438,-122.4787368774414,-193.47576904296875,1.5793193578720093,-9.349091529846191,5.635298728942871,-5.389999866485596,9.869999885559082,-33.38999938964844,28.650001525878903,0.6000000238418579,-7.200000286102295
1720095564.740085,6.494352340698242,-6.886789321899414,3.658756494522095,6.369999885559082,-24.43000030517578,31.5,154.5597381591797,-126.3573760986328,-192.77883911132807,0.8542681932449341,-8.60250473022461,5.056214809417725,7.699999809265137,9.65999984741211,-29.61000061035156,28.200000762939453,0.75,-8.550000190734863
1720095564.7403889,6.489566802978516,-7.293583869934082,3.730543613433838,11.760000228881836,-24.5,29.96000099182129,151.67784118652344,-127.4610595703125,-193.23556518554688,0.765730619430542,-7.339049339294434,4.929390907287598,7.909999847412109,8.890000343322754,-29.88999938964844,30.00000190734864,1.5,-7.350000381469727
1720095564.7401109,6.245490074157715,-7.166759967803955,4.216303825378418,16.729999542236328,-22.540000915527344,28.559999465942383,152.21322631835938,-122.50514221191406,-192.220443725586,1.0241646766662598,-7.39647912979126,5.872196674346924,1.4700000286102295,13.09000015258789,-35.13999938964844,28.950000762939453,2.550000190734864,-8.40000057220459
1720095564.7657518,5.977484226226807,-6.7838945388793945,4.115801811218262,22.540000915527344,-22.26000022888184,26.18000030517578,152.00714111328125,-126.7099380493164,-192.26348876953125,1.6870001554489136,-7.38690710067749,6.013378143310547,-1.680000066757202,17.71000099182129,-42.06999969482422,29.55000114440918,1.2000000476837158,-9.90000057220459
1720095564.740188,6.092343807220459,-7.037542819976807,3.56782603263855,31.290000915527344,-22.96000099182129,23.59000015258789,151.97503662109375,-126.15713500976562,-190.9036102294922,1.6152129173278809,-6.87482500076294,5.197396278381348,-16.3799991607666,16.729999542236328,-42.42000198364258,29.700000762939453,2.400000095367432,-9.600000381469728
1720095564.740594,6.178488731384277,-7.351013660430908,3.1586387157440186,33.810001373291016,-22.46999931335449,23.030000686645508,151.91896057128906,-125.88915252685548,-191.4164886474609,2.072258472442627,-8.095208168029785,5.094501495361328,-50.119998931884766,12.880000114440918,-37.380001068115234,29.55000114440918,2.400000095367432,-7.950000286102295
1720095564.740213,6.006199359893799,-6.877217769622803,3.362035751342773,31.56999969482422,-21.489999771118164,22.32999992370605,153.5209503173828,-124.02267456054688,-189.83468627929688,1.9765421152114868,-9.2725191116333,5.027499675750732,-67.12999725341797,11.0600004196167,-33.7400016784668,29.700000762939453,2.400000095367432,-7.350000381469727
1720095564.765854,5.881768226623535,-6.278990745544434,3.740115404129028,30.8700008392334,-22.61000061035156,18.6200008392334,154.40811157226562,-127.9104461669922,-191.93165588378903,1.7875022888183594,-9.351485252380373,5.015535354614258,-58.2400016784668,10.989999771118164,-30.65999984741211,30.00000190734864,1.6500000953674316,-7.950000286102295
1720095564.7403347,6.223953723907471,-6.037307262420654,3.725757837295532,24.920000076293945,-21.06999969482422,15.960000038146973,153.00274658203125,-126.0549087524414,-189.9110717773437,1.7922881841659546,-9.55009651184082,4.737957954406738,-34.22999954223633,8.329999923706055,-24.850000381469727,30.150001525878903,1.6500000953674316,-7.350000381469727
1720095564.7659757,6.252668857574463,-6.152166843414307,3.773616075515747,12.460000038146973,-16.59000015258789,13.789999961853027,151.95457458496094,-123.24138641357422,-191.08755493164065,1.4189945459365845,-8.580968856811523,3.747294187545776,-17.850000381469727,4.059999942779541,-19.11000061035156,29.850000381469727,1.5,-8.100000381469727
1720095564.740363,6.343599319458008,-6.472816467285156,3.653970718383789,0.1400000005960464,-14.140000343322754,12.529999732971191,151.45950317382812,-125.54853057861328,-191.6333923339844,1.7372512817382812,-9.394556999206545,3.0102784633636475,-31.850000381469727,-0.9800000190734864,-12.18000030517578,30.450000762939453,0.9000000357627869,-7.050000190734863
1720095564.7660038,6.410600662231445,-6.401029109954834,4.003335475921631,-4.409999847412109,-12.600000381469728,8.1899995803833,152.30043029785156,-128.886474609375,-192.79147338867188,2.151224374771118,-9.27969741821289,3.2376046180725098,-48.790000915527344,-2.6600000858306885,-16.940000534057617,32.400001525878906,0.3000000119209289,-6.750000476837158
1720095564.7404428,6.441708564758301,-6.535031795501709,4.388593673706055,-5.599999904632568,-8.819999694824219,4.130000114440918,153.56924438476562,-127.2123565673828,-189.9798583984375,1.32806396484375,-7.796094417572021,3.61089825630188,-53.060001373291016,0.9800000190734864,-18.96999931335449,30.600000381469727,2.25,-7.200000286102295
1720095564.7660837,6.889182567596436,-6.618783950805664,4.623098373413086,-6.510000228881836,-0.2800000011920929,1.680000066757202,151.97842407226562,-127.4765625,-190.4365997314453,1.5673547983169556,-8.911190032958984,3.864546537399292,-45.220001220703125,2.380000114440918,-16.799999237060547,31.50000190734864,1.8000000715255735,-5.550000190734863
1720095564.74047,6.870038986206055,-6.441708564758301,4.582418918609619,-4.690000057220459,10.56999969482422,-2.450000047683716,153.78976440429688,-127.24471282958984,-189.56651306152344,2.055508136749268,-9.102622032165527,4.455595016479492,-24.920000076293945,1.5399999618530271,-12.739999771118164,30.450000762939453,0.1500000059604644,-5.850000381469727
1720095564.766111,7.011220932006836,-5.886553764343262,4.867175102233887,1.3300000429153442,15.329999923706056,-10.989999771118164,152.798095703125,-124.4192886352539,-189.0590209960937,1.8640754222869875,-9.39216423034668,4.38380765914917,-3.0799999237060547,-4.619999885559082,-9.029999732971191,30.450000762939453,0.75,-4.650000095367432
1720095564.7405698,7.152402400970459,-5.58983325958252,4.161267280578613,1.75,22.26000022888184,-21.770000457763672,153.42201232910156,-124.5242919921875,-188.941635131836,2.2230117321014404,-9.48788070678711,4.058372020721436,20.93000030517578,-8.470000267028809,-10.359999656677246,30.900001525878903,0.75,-4.050000190734863
1720095564.7662108,7.018399238586426,-6.133023262023926,3.589362144470215,-7.490000247955322,24.63999938964844,-28.489999771118164,149.69920349121094,-121.8092269897461,-192.08023071289065,3.4051082134246826,-7.130866050720215,3.68029260635376,21.13999938964844,0.4200000166893005,-15.470000267028809,30.75000190734864,-0.4500000178813934,-4.800000190734863
1720095564.740619,7.34383487701416,-6.771929740905762,3.508003234863281,-19.670000076293945,25.96999931335449,-27.51000022888184,156.5157928466797,-126.93441009521484,-191.0718231201172,2.567590475082397,-8.207674980163574,6.039700031280518,6.860000133514404,17.920000076293945,-15.890000343322754,31.80000114440918,0.3000000119209289,-5.550000190734863
1720095564.740696,6.738429069519043,-6.054057598114014,3.74968695640564,-11.550000190734863,28.06999969482422,-33.810001373291016,153.14410400390625,-125.0635757446289,-193.38113403320312,2.541268348693848,-10.320612907409668,5.39122200012207,13.440000534057615,23.239999771118164,-17.5,31.05000114440918,0.75,-4.950000286102295
1720095564.766337,6.913111686706543,-5.673584938049316,3.302213191986084,-19.950000762939453,27.790000915527344,-39.47999954223633,154.3490447998047,-126.04315948486328,-191.7404327392578,2.950455665588379,-11.105486869812012,4.883925437927246,43.18999862670898,25.34000015258789,-22.88999938964844,31.350000381469727,1.8000000715255735,-3.900000095367432
1720095564.7422938,6.927468776702881,-5.932019233703613,3.2376046180725098,-38.56999969482422,30.100000381469727,-40.67000198364258,151.32212829589844,-122.09782409667967,-192.9833831787109,3.3141777515411377,-8.22203254699707,4.903068542480469,55.790000915527344,25.479999542236328,-21.420000076293945,31.80000114440918,0.3000000119209289,-6.150000095367432
1720095564.740796,6.551782131195068,-6.51828145980835,3.436216115951538,-47.459999084472656,32.47999954223633,-40.040000915527344,154.2382049560547,-124.18679809570312,-193.0928497314453,4.446023464202881,-11.512280464172363,3.9315478801727295,27.93000030517578,-9.239999771118164,25.82999992370605,33.150001525878906,3.450000047683716,-8.40000057220459
1720095564.7424088,6.546996593475342,-6.882003784179688,3.878904104232788,-44.72999954223633,32.7599983215332,-39.619998931884766,151.45831298828125,-121.86815643310548,-193.9248809814453,1.5936768054962158,-6.920289993286133,5.111251831054688,22.39999961853028,-12.25,19.739999771118164,32.400001525878906,1.350000023841858,-8.100000381469727
1720095564.742437,6.817395210266113,-6.625962734222412,3.6994359493255615,-38.709999084472656,33.880001068115234,-39.54999923706055,153.7453155517578,-124.61378479003906,-191.62319946289065,2.9815635681152344,-9.258161544799805,4.4795241355896,13.93000030517578,-19.670000076293945,22.68000030517578,31.05000114440918,2.400000095367432,-10.200000762939451
1720095564.740851,6.642713069915772,-6.188060283660889,3.534325361251831,-37.65999984741211,36.540000915527344,-42.13999938964844,152.50311279296875,-123.36225128173828,-193.21543884277344,2.718343496322632,-8.114351272583008,4.52259635925293,-8.539999961853027,-21.559999465942383,18.89999961853028,32.25,0.75,-7.800000190734863
1720095564.7422588,6.322062969207764,-6.140202045440674,3.4098939895629883,-38.5,35.42000198364258,-47.040000915527344,149.79806518554688,-125.34681701660156,-198.0350646972656,3.3404996395111084,-11.14616584777832,4.16605281829834,-14.5600004196167,-22.049999237060547,21.280000686645508,32.70000076293945,2.25,-8.25
1720095564.742514,6.544603824615479,-6.338813304901123,3.338106870651245,-41.02000045776367,30.940000534057617,-50.61000061035156,154.00189208984375,-121.23770141601562,-193.5497894287109,2.14404559135437,-8.753257751464844,3.8525819778442383,-1.0499999523162842,-19.8799991607666,19.25,30.150001525878903,0.9000000357627869,-8.40000057220459
1720095564.742564,6.9801130294799805,-6.585283279418945,3.35964298248291,-45.43000030517578,30.940000534057617,-50.400001525878906,154.04518127441406,-120.188232421875,-193.7846069335937,2.268476963043213,-8.370392799377441,4.764279842376709,-1.4700000286102295,-19.25,19.25,30.450000762939453,1.2000000476837158,-7.800000190734863
1720095564.742324,6.630748271942139,-6.549389362335205,3.450573444366455,-47.95000076293945,35.560001373291016,-50.18999862670898,153.69613647460938,-121.98385620117188,-193.8201904296875,1.7276796102523804,-10.375649452209473,4.819316864013672,7.909999847412109,-19.38999938964844,24.850000381469727,30.30000114440918,1.2000000476837158,-6.600000381469727
1720095564.7424629,6.161738395690918,-6.606819152832031,3.503217458724976,-46.47999954223633,38.08000183105469,-52.84999847412109,153.67312622070312,-117.18893432617188,-192.1289520263672,1.9621846675872805,-6.628355503082275,4.50584602355957,-0.699999988079071,-18.89999961853028,17.71000099182129,32.10000228881836,1.0500000715255735,-7.200000286102295
1720095564.7426398,6.3699212074279785,-6.479995250701904,3.5941479206085205,-45.150001525878906,37.869998931884766,-56.90999984741211,156.32847595214844,-117.37432098388672,-191.89923095703125,2.1201164722442627,-8.75086498260498,3.5797905921936035,-19.31999969482422,-17.920000076293945,17.219999313354492,30.150001525878903,0.9000000357627869,-8.100000381469727
1720095564.742714,6.841324329376221,-6.003806591033936,3.40271520614624,-42.84000015258789,38.709999084472656,-61.52999877929688,156.00550842285156,-121.04415893554688,-193.1083526611328,1.557783126831055,-10.595796585083008,3.795152187347412,-17.010000228881836,-18.82999992370605,21.21000099182129,31.05000114440918,1.2000000476837158,-5.850000381469727
1720095564.74254,6.824573993682861,-5.506081581115723,3.0868513584136963,-42.77000045776367,36.88999938964844,-67.62000274658203,154.6678009033203,-121.1328582763672,-197.1804962158203,1.5506044626235962,-8.724542617797852,4.436451435089111,-10.989999771118164,-12.880000114440918,19.18000030517578,30.450000762939453,1.8000000715255735,-5.400000095367432
1720095564.74259,6.704928398132324,-5.45104455947876,3.036600351333618,-47.7400016784668,31.780000686645508,-72.80000305175781,156.79177856445312,-118.27369689941406,-193.88417053222656,1.4764243364334106,-8.200495719909668,4.314413070678711,-18.479999542236328,-9.170000076293944,20.299999237060547,30.150001525878903,0.1500000059604644,-5.550000190734863
1720095564.742796,7.200260639190674,-5.422329902648926,2.8619179725646973,-55.29999923706055,29.540000915527344,-76.0199966430664,156.52842712402344,-118.5301284790039,-196.73159790039065,1.1366313695907593,-9.265339851379396,4.21869707107544,-13.720000267028809,-9.730000495910645,22.26000022888184,31.200000762939453,-0.3000000119209289,-3.900000095367432
1720095564.768437,7.310334205627441,-5.644870281219482,3.218461275100708,-63.42000198364258,34.22999954223633,-77.20999908447266,157.89015197753906,-117.6758041381836,-194.6266632080078,0.7226582169532776,-9.743921279907228,4.754708290100098,1.8899999856948853,-10.149999618530272,22.049999237060547,30.600000381469727,0.3000000119209289,-3.750000238418579
1720095564.742616,7.032756805419922,-6.116272926330566,3.42903733253479,-64.61000061035156,41.369998931884766,-76.6500015258789,158.254638671875,-114.55679321289062,-194.49676513671875,1.0457007884979248,-10.007142066955566,4.520203590393066,13.369999885559082,-11.0600004196167,23.729999542236328,29.400001525878903,0.75,-3.750000238418579
1720095564.7426898,6.905932903289795,-6.0253424644470215,3.4170727729797363,-59.01000213623047,43.470001220703125,-75.52999877929688,154.58409118652344,-111.55094909667967,-194.920639038086,1.3113136291503906,-8.860939025878906,4.060765266418457,17.010000228881836,-10.149999618530272,27.93000030517578,28.50000190734864,1.350000023841858,-3.750000238418579
1720095564.7429268,7.937276363372803,-5.776480197906494,2.6537351608276367,-52.9900016784668,37.17000198364258,-74.55000305175781,155.5586700439453,-112.78004455566406,-195.14505004882807,1.0457007884979248,-9.006906509399414,3.8812968730926514,14.84000015258789,-8.050000190734863,34.09000015258789,28.80000114440918,0.6000000238418579,-3.450000047683716
1720095564.7685678,8.48046588897705,-5.9272332191467285,2.2230117321014404,-49.84000015258789,30.380001068115234,-76.30000305175781,157.5699462890625,-114.18479919433594,-195.26736450195312,1.1222739219665527,-9.351485252380373,4.189981937408447,6.579999923706055,-5.179999828338623,39.060001373291016,29.400001525878903,0.75,-4.650000095367432
1720095564.742739,7.8726677894592285,-6.106701374053955,2.598698139190674,-48.720001220703125,23.520000457763672,-80.43000030517578,159.09097290039062,-113.37571716308594,-194.5733795166016,1.100737690925598,-9.846817016601562,4.453201770782471,-1.190000057220459,-3.220000028610229,44.02999877929688,26.850000381469727,-1.2000000476837158,-2.400000095367432
1720095564.742823,7.5568037033081055,-5.644870281219482,2.9743847846984863,-49.42000198364258,18.270000457763672,-82.04000091552734,159.16677856445312,-112.59918212890624,-194.9969787597656,0.4761887192726135,-9.68649196624756,4.111016273498535,-9.380000114440918,1.8899999856948853,51.52000045776367,27.75000190734864,-0.1500000059604644,-3.900000095367432
1720095564.7429998,8.009063720703125,-5.384043216705322,3.046171903610229,-47.38999938964844,16.729999542236328,-78.47000122070312,158.38490295410156,-111.12852478027344,-194.0301055908203,-0.2727915346622467,-10.313433647155762,3.598933696746826,-13.020000457763672,2.870000123977661,56.560001373291016,26.700000762939453,0.1500000059604644,-3.150000095367432
1720095564.7686408,8.195710182189941,-5.441473007202148,2.5819478034973145,-45.5,14.699999809265137,-73.01000213623047,157.822265625,-110.52983856201172,-196.16319274902344,-0.5264397859573364,-9.310805320739746,3.910011768341065,-18.6200008392334,1.399999976158142,57.540000915527344,25.950000762939453,-1.5,-1.0500000715255735
1720095564.7428768,7.956419467926025,-5.5539398193359375,2.622627258300781,-45.290000915527344,7.909999847412109,-67.83000183105469,159.202392578125,-109.951416015625,-194.6680450439453,0.0478581637144088,-9.186373710632324,4.151695728302002,-18.690000534057617,-3.150000095367432,63.84000015258789,27.150001525878903,0.1500000059604644,-1.0500000715255735
1720095564.742951,7.975562572479248,-5.288326740264893,2.72552227973938,-45.84999847412109,4.130000114440918,-63.560001373291016,156.68280029296875,-109.81623840332033,-197.01036071777344,-1.177310824394226,-7.219403743743896,3.400322437286377,-28.979999542236328,-4.409999847412109,65.30999755859375,25.650001525878903,-1.2000000476837158,0.75
1720095564.7431448,8.186138153076172,-5.096894264221191,3.182567834854126,-46.34000015258789,5.599999904632568,-60.619998931884766,158.0287628173828,-106.045166015625,-194.94903564453125,-2.055508136749268,-9.284482955932615,4.115801811218262,-34.790000915527344,0.2100000083446502,69.93000030517578,25.650001525878903,0.1500000059604644,2.550000190734864
1720095564.7687857,8.68864917755127,-4.883925437927246,3.16821026802063,-47.11000061035156,8.1899995803833,-56.90999984741211,158.1122589111328,-106.866943359375,-195.93638610839844,-2.3163349628448486,-9.449594497680664,4.0224785804748535,-38.290000915527344,4.409999847412109,65.80000305175781,22.80000114440918,-1.950000047683716,4.200000286102295
1720095564.743073,8.626433372497559,-5.072965145111084,2.493410348892212,-46.130001068115234,6.369999885559082,-52.36000061035156,157.55088806152344,-105.42863464355467,-194.55616760253903,-1.904754877090454,-8.164602279663086,3.503217458724976,-37.310001373291016,4.619999885559082,62.93000030517578,22.200000762939453,-0.6000000238418579,4.950000286102295
1720095564.743048,8.336892127990723,-5.230896949768066,2.3354783058166504,-42.77000045776367,2.240000009536743,-47.67000198364258,158.99742126464844,-104.07566833496094,-193.7652740478516,-2.6656997203826904,-8.195710182189941,3.7712230682373047,-41.29999923706055,20.020000457763672,66.56999969482422,21.0,-1.8000000715255735,7.350000381469727
1720095564.7432678,8.205282211303711,-4.68770694732666,2.486231565475464,-37.2400016784668,-2.309999942779541,-43.400001525878906,159.16175842285156,-108.36005401611328,-195.08660888671875,-4.010513782501221,-9.638633728027344,4.240232944488525,-38.9900016784668,19.809999465942383,65.0999984741211,20.100000381469727,-3.150000095367432,10.350000381469728
1720095564.7689087,9.009299278259276,-4.21869707107544,2.5388755798339844,-37.17000198364258,-6.159999847412109,-39.130001068115234,159.58111572265625,-102.30943298339844,-192.89535522460932,-3.821474313735962,-10.023892402648926,4.039228916168213,-21.0,16.799999237060547,57.119998931884766,19.950000762939453,-3.900000095367432,10.200000762939451
1720095564.743122,9.310805320739746,-4.807352542877197,2.5604116916656494,-45.63999938964844,-1.399999976158142,-31.36000061035156,156.47784423828125,-103.94049072265624,-196.10760498046875,-3.204103946685791,-7.657305717468262,3.512789011001587,-2.240000009536743,10.710000038146973,49.0,19.350000381469727,-3.750000238418579,12.0
1720095564.743218,8.7843656539917,-5.247647285461426,2.488624334335327,-49.70000076293945,1.190000057220459,-20.790000915527344,160.05471801757812,-102.64707946777344,-192.2574462890625,-3.780794858932495,-6.412993907928467,2.6585209369659424,-17.989999771118164,8.75,55.369998931884766,18.30000114440918,-2.700000047683716,11.100000381469728
1720095564.7433858,8.65514850616455,-5.556332588195801,2.1249024868011475,-46.970001220703125,-3.920000076293945,-12.600000381469728,159.41624450683594,-102.8249282836914,-193.9669342041016,-3.991370677947998,-7.645341396331787,3.548682689666748,-39.130001068115234,11.829999923706056,56.70000076293945,18.150001525878903,-3.750000238418579,12.750000953674316
1720095564.7690268,8.906403541564941,-5.63290548324585,2.278048515319824,-41.5099983215332,-7.420000076293945,-7.980000019073486,159.0115509033203,-104.07269287109376,-193.3442840576172,-5.352935314178467,-7.279226303100586,3.07249402999878,-56.84000015258789,13.93000030517578,49.70000076293945,15.600000381469728,-3.6000001430511475,15.000000953674316
1720095564.743243,8.760436058044434,-5.577868938446045,2.536482572555542,-28.21000099182129,-5.389999866485596,-6.230000019073486,159.25816345214844,-105.97926330566406,-194.1044769287109,-4.596776485443115,-9.169623374938965,5.40797233581543,-62.43999862670898,7.909999847412109,46.060001373291016,14.700000762939451,-4.800000190734863,16.950000762939453
1720095564.743315,8.590539932250977,-5.010749340057373,2.333085298538208,-9.730000495910645,-5.949999809265137,-8.119999885559082,159.5340118408203,-102.31934356689452,-194.29864501953125,-2.7518444061279297,-12.172723770141602,5.699907302856445,-34.15999984741211,12.670000076293944,52.0099983215332,17.100000381469727,-5.550000190734863,18.900001525878903
1720095564.743487,8.619255065917969,-4.10623025894165,2.2589051723480225,4.900000095367432,-12.529999732971191,-12.670000076293944,160.6486053466797,-104.35830688476562,-193.82644653320312,-5.070572376251221,-5.254826068878174,2.053115129470825,-39.060001373291016,21.489999771118164,50.75,14.850000381469728,-4.5,20.100000381469727
1720095564.7435608,9.102622032165527,-3.469716787338257,2.2014753818511963,14.279999732971191,-16.170000076293945,-12.31999969482422,159.6864013671875,-104.7265396118164,-194.02545166015625,-6.5733184814453125,-8.657541275024414,1.6702498197555542,-62.51000213623047,29.39999961853028,56.4900016784668,13.800000190734863,-3.300000190734864,20.700000762939453
1720095564.743338,9.179195404052734,-3.443394660949707,1.907147765159607,9.520000457763672,-17.079999923706055,-7.909999847412109,160.62109375,-108.32452392578124,-193.54803466796875,-6.728857517242432,-9.21030330657959,2.325906753540039,-65.66000366210938,12.8100004196167,43.119998931884766,13.500000953674316,-4.5,21.75
1720095564.743631,9.308412551879885,-3.443394660949707,1.6176059246063232,0.2800000011920929,-19.11000061035156,-5.389999866485596,158.47802734375,-102.90831756591795,-192.293197631836,-6.427350997924805,-7.453908920288086,0.6365135312080383,-42.70000076293945,-4.340000152587891,34.650001525878906,11.850000381469728,-5.100000381469727,24.30000114440918
1720095564.769272,9.370628356933594,-3.716186285018921,2.2995846271514893,-20.440000534057617,-18.40999984741211,-3.990000009536743,161.1260223388672,-105.73551177978516,-191.5504302978516,-5.6879425048828125,-3.759258508682251,-0.2010042816400528,-44.17000198364258,-16.940000534057617,15.960000038146973,11.700000762939451,-3.750000238418579,24.150001525878903
1720095564.743701,9.325162887573242,-4.003335475921631,2.907383441925049,-33.95000076293945,-11.270000457763672,-2.240000009536743,160.5916290283203,-105.1308822631836,-192.84152221679688,-4.797780513763428,-2.79491662979126,1.6846072673797607,-91.48999786376952,-17.850000381469727,12.18000030517578,13.500000953674316,-4.950000286102295,26.400001525878903
1720095564.743512,9.274911880493164,-3.890868663787842,3.02942156791687,-31.01000022888184,-4.409999847412109,-3.849999904632568,159.94032287597656,-104.47208404541016,-191.45870971679688,-3.900440216064453,-6.073200702667236,1.8592896461486816,-145.60000610351562,-9.380000114440918,20.020000457763672,12.15000057220459,-3.900000095367432,28.05000114440918
1720095564.7437248,9.451987266540527,-3.7209720611572266,2.6034839153289795,-19.670000076293945,-2.0999999046325684,-7.769999980926514,159.08175659179688,-104.33769989013672,-192.4104461669922,-3.697042942047119,-11.473994255065918,-0.1363957673311233,-172.47999572753906,-28.979999542236328,54.31999969482422,12.0,-5.700000286102295,31.200000762939453
1720095564.7693658,9.308412551879885,-3.716186285018921,1.739644169807434,-10.220000267028809,-4.480000019073486,-11.34000015258789,161.09182739257812,-102.54286193847656,-190.9842529296875,-5.101680278778076,-17.23133087158203,0.7705163955688477,-120.68000030517578,38.5,34.790000915527344,11.100000381469728,-3.750000238418579,34.05000305175781
1720095564.743845,8.944690704345703,-3.988977909088135,1.438137769699097,-8.680000305175781,-7.349999904632568,-11.480000495910645,161.74398803710938,-102.64192199707033,-190.02487182617188,-6.9107184410095215,-12.914525032043455,0.0598227009177207,-33.11000061035156,17.079999923706055,16.59000015258789,10.050000190734863,-3.300000190734864,36.900001525878906
1720095564.7436078,8.710185050964355,-4.163660049438477,1.7324655055999756,-13.510000228881836,-7.699999809265137,-8.260000228881836,161.222412109375,-103.35472869873048,-190.5682983398437,-4.4795241355896,-12.215795516967772,2.950455665588379,36.88999938964844,-1.1200000047683716,15.190000534057615,10.65000057220459,-3.450000047683716,37.35000228881836
1720095564.7439167,9.380199432373049,-4.089479923248291,2.47426700592041,-23.8700008392334,-3.009999990463257,-4.550000190734863,161.3319854736328,-106.05071258544922,-192.7291717529297,-5.3864359855651855,-5.934412002563477,0.8710185289382935,60.900001525878906,0.9100000262260436,7.699999809265137,10.800000190734863,-4.5,38.85000228881836
1720095564.7695577,9.8444242477417,-3.948298454284668,2.584340810775757,-30.170000076293945,5.880000114440918,-2.380000114440918,159.36868286132812,-103.5955047607422,-192.70135498046875,-5.0346784591674805,-7.147616386413574,0.2105759084224701,41.369998931884766,3.849999904632568,11.550000190734863,8.550000190734863,-5.550000190734863,35.25
1720095564.743985,9.547703742980955,-4.312020301818848,2.368978977203369,-28.21000099182129,11.550000190734863,-2.309999942779541,160.95433044433594,-104.09294891357422,-189.716064453125,-3.6491849422454834,-8.198102951049805,0.5479759573936462,31.63999938964844,3.009999990463257,-2.0299999713897705,9.0,-4.950000286102295,33.900001525878906
1720095564.743773,8.887260437011719,-4.833674430847168,1.809038519859314,-15.050000190734863,9.9399995803833,-1.4700000286102295,163.43109130859375,-104.51692962646484,-189.8078155517578,-3.022243022918701,-7.83916711807251,1.517103672027588,41.15999984741211,21.90999984741211,-7.840000152587891,10.350000381469728,-4.950000286102295,33.45000076293945
1720095564.744047,8.75804328918457,-4.804959297180176,1.3208853006362915,6.510000228881836,0.9800000190734864,-0.6299999952316284,158.94175720214844,-103.52781677246094,-193.1070556640625,-3.371607542037964,-7.654912948608398,2.366586208343506,55.58000183105469,41.93000030517578,-14.350000381469728,10.65000057220459,-2.8500001430511475,34.650001525878906
1720095564.769688,9.026049613952637,-4.108623027801514,1.1055235862731934,23.030000686645508,-7.210000038146973,-1.9600000381469729,162.3720703125,-107.5457992553711,-192.16004943847656,-4.405344009399414,-10.07892894744873,2.9672060012817383,71.26000213623047,54.25,-7.490000247955322,11.40000057220459,-4.800000190734863,31.950000762939453
1720095564.744146,8.999727249145508,-3.5606472492218018,1.1533817052841189,30.170000076293945,-9.800000190734863,-4.340000152587891,166.14120483398438,-106.29069519042967,-188.7385406494141,-6.0325212478637695,-13.338069915771484,2.7015931606292725,101.08000183105467,59.5,-1.6100000143051147,8.850000381469727,-4.650000095367432,31.80000114440918
1720095564.743883,9.191160202026367,-3.2136754989624023,1.5864980220794678,25.82999992370605,-8.890000343322754,-5.389999866485596,159.50233459472656,-101.48666381835938,-191.76768493652344,-6.298134326934815,-10.842267036437988,0.667621374130249,136.63999938964844,26.040000915527344,-4.550000190734863,9.450000762939451,-3.6000001430511475,30.450000762939453
1720095564.744195,9.138516426086426,-3.0126712322235107,1.9191123247146609,12.31999969482422,-6.789999961853027,-3.849999904632568,160.76119995117188,-104.61439514160156,-191.629623413086,-4.833674430847168,-6.630748271942139,-0.7681235074996948,120.4000015258789,2.6600000858306885,-5.740000247955322,11.100000381469728,-5.400000095367432,27.900001525878903
1720095564.769836,9.08108615875244,-3.1777820587158203,2.0004711151123047,-0.2100000083446502,-5.389999866485596,-2.1700000762939453,162.34817504882812,-103.79142761230467,-188.9710235595703,-5.374471664428711,-5.484545230865479,-0.6269419193267822,73.5,5.110000133514404,-3.920000076293945,9.90000057220459,-4.350000381469727,26.850000381469727
1720095564.744267,9.260554313659668,-3.479288339614868,1.8712540864944456,-4.409999847412109,-5.320000171661377,-1.399999976158142,158.6934051513672,-103.2215347290039,-193.1912841796875,-5.9200544357299805,-8.770008087158203,0.5192610621452332,37.72999954223633,4.550000190734863,1.2599999904632568,10.65000057220459,-4.950000286102295,22.950000762939453
1720095564.7440958,9.212696075439451,-3.850189208984375,1.8521108627319336,-0.2100000083446502,-5.039999961853027,-0.0700000002980232,161.9225616455078,-102.40332794189452,-189.7034149169922,-5.783658981323242,-10.107644081115724,1.8880045413970947,42.42000198364258,-5.809999942779541,0.9100000262260436,10.5,-5.100000381469727,24.30000114440918
1720095564.744316,9.224660873413086,-3.893261432647705,1.8521108627319336,6.230000019073486,-5.670000076293945,0.9100000262260436,160.6541748046875,-103.79757690429688,-191.3439178466797,-5.039464473724365,-8.83700942993164,2.376157760620117,55.720001220703125,-12.039999961853027,0.7699999809265137,11.550000190734863,-3.900000095367432,22.950000762939453
1720095564.7699568,9.332341194152832,-3.6491849422454834,1.777930736541748,12.8100004196167,-7.420000076293945,0.2800000011920929,159.5537109375,-101.7556381225586,-191.3951416015625,-5.037071704864502,-8.097600936889648,2.988742113113404,56.0,-3.7100000381469727,1.680000066757202,10.350000381469728,-2.700000047683716,21.600000381469727
1720095564.74417,9.447200775146484,-3.407501220703125,1.8951832056045528,14.770000457763672,-7.349999904632568,-1.3300000429153442,159.13711547851562,-100.64541625976562,-193.01795959472656,-5.2811479568481445,-8.391928672790527,2.017221450805664,51.45000076293945,-4.690000057220459,5.740000247955322,10.65000057220459,-3.300000190734864,20.400001525878903
1720095564.744485,9.253376007080078,-3.469716787338257,1.706143498420715,13.230000495910645,-4.269999980926514,0.2100000083446502,163.01829528808594,-104.4462661743164,-189.7925262451172,-5.020321369171143,-8.391928672790527,2.720736503601074,55.720001220703125,-7.139999866485596,4.059999942779541,10.050000190734863,-4.050000190734863,18.75
1720095564.744437,8.982976913452148,-3.2352118492126465,0.8040171265602112,16.520000457763672,-9.380000114440918,3.0799999237060547,160.52401733398438,-102.70584106445312,-190.5887908935547,-5.005963802337647,-7.154795169830322,3.007885456085205,48.09000015258789,-6.650000095367432,4.269999980926514,11.100000381469728,-4.650000095367432,16.80000114440918
1720095564.770078,8.703006744384766,-3.163424491882324,0.4283305406570434,21.280000686645508,-23.59000015258789,1.190000057220459,156.74720764160156,-102.3626480102539,-193.4465484619141,-4.979641914367676,-8.676684379577637,3.644398927688599,34.86000061035156,-4.550000190734863,5.949999809265137,9.450000762939451,-3.150000095367432,17.25
1720095564.7442908,9.176802635192873,-3.2495691776275635,1.6917860507965088,14.350000381469728,-29.81999969482422,-1.190000057220459,156.41976928710938,-96.99346923828124,-192.35238647460932,-4.917426109313965,-8.525931358337402,4.099051475524902,35.97999954223633,-4.269999980926514,5.110000133514404,11.850000381469728,-3.300000190734864,16.200000762939453
1720095564.7445838,10.117215156555176,-3.508003234863281,3.1227450370788574,-5.949999809265137,-16.239999771118164,3.569999933242798,159.96092224121094,-102.86782836914062,-190.052978515625,-4.623098373413086,-8.478073120117188,4.7666730880737305,42.13999938964844,-3.7100000381469727,6.019999980926514,11.40000057220459,-3.750000238418579,15.750000953674316
1720095564.74451,9.51180934906006,-3.1706032752990723,3.0174570083618164,-10.640000343322754,-2.0299999713897705,8.819999694824219,161.34237670898438,-100.96897888183594,-188.884521484375,-4.840853214263916,-7.573554039001465,3.6204700469970703,45.290000915527344,-4.409999847412109,6.860000133514404,10.800000190734863,-2.25,16.05000114440918
1720095564.770151,9.20073127746582,-3.766437292098999,1.6534994840621948,-0.9100000262260436,-5.809999942779541,6.789999961853027,159.82562255859375,-102.05696105957033,-190.60926818847656,-4.764279842376709,-10.466580390930176,3.16821026802063,64.75,-1.820000052452088,3.920000076293945,9.90000057220459,-1.6500000953674316,12.90000057220459
1720095564.744388,9.01169204711914,-4.268948078155518,0.8303391337394714,14.770000457763672,-14.420000076293944,5.039999961853027,163.26708984375,-104.47267150878906,-188.5372009277344,-4.694885730743408,-8.195710182189941,7.212224960327148,120.75,11.550000190734863,-11.40999984741211,12.15000057220459,-3.150000095367432,13.500000953674316
1720095564.7447798,9.100229263305664,-3.80233097076416,1.2036327123641968,26.809999465942383,-17.780000686645508,3.7799999713897705,161.12490844726562,-98.01592254638672,-188.78013610839844,-5.484545230865479,-1.957398772239685,7.733879089355469,168.2100067138672,28.559999465942383,-14.489999771118164,11.700000762939451,-1.350000023841858,11.25
1720095564.744659,9.10740852355957,-2.940884113311768,1.682214379310608,29.190000534057617,-16.309999465942383,1.3300000429153442,159.10150146484375,-103.2931900024414,-193.346908569336,-4.455595016479492,-5.144752502441406,6.116272926330566,154.49000549316406,28.420000076293945,-14.630000114440918,10.050000190734863,-1.0500000715255735,6.300000190734863
1720095564.7703,9.021263122558594,-2.4503378868103027,1.306527853012085,24.850000381469727,-13.720000267028809,-0.4900000095367431,159.77938842773438,-101.5071258544922,-189.6703643798828,-4.594383716583252,-7.70037841796875,2.486231565475464,123.9000015258789,22.81999969482422,-20.15999984741211,11.850000381469728,-1.6500000953674316,5.700000286102295
1720095564.7445588,9.073907852172852,-2.3067634105682373,1.359171748161316,15.539999961853027,-14.210000038146973,-0.9100000262260436,162.5314483642578,-103.55184173583984,-188.5092163085937,-4.9006757736206055,-7.965991020202637,3.5606472492218018,112.91000366210938,21.700000762939453,-33.040000915527344,11.550000190734863,-1.350000023841858,3.450000047683716
1720095564.744828,9.514202117919922,-2.354621648788452,1.682214379310608,3.640000104904175,-13.720000267028809,-0.2100000083446502,159.3524627685547,-101.43943786621094,-190.07606506347656,-4.778637409210205,-6.434529781341553,3.761651515960693,119.55999755859376,18.690000534057617,-38.08000183105469,13.050000190734863,-0.3000000119209289,1.350000023841858
1720095564.744876,9.468737602233888,-2.0890088081359863,1.739644169807434,-6.929999828338623,-10.779999732971191,1.190000057220459,160.2371063232422,-103.44803619384766,-190.29786682128903,-4.472345352172852,-6.843717098236084,5.262004852294922,118.44000244140624,17.639999389648438,-34.93000030517578,12.15000057220459,0.6000000238418579,-1.0500000715255735
1720095564.7705169,9.559667587280272,-2.163188934326172,1.4979604482650757,-19.31999969482422,-11.0600004196167,1.820000052452088,159.7434539794922,-99.91476440429688,-189.9486083984375,-4.960498332977295,-6.235918521881104,5.778872966766357,103.04000091552734,17.5,-33.31999969482422,12.90000057220459,0.3000000119209289,-2.700000047683716
1720095564.7446828,10.177038192749023,-3.4386088848114014,1.720500946044922,-34.22999954223633,-7.070000171661377,4.619999885559082,162.73060607910156,-101.70899963378906,-186.78201293945312,-4.187589168548584,-8.145459175109863,5.721443176269531,105.0,17.56999969482422,-33.7400016784668,11.100000381469728,1.6500000953674316,-4.5
1720095564.744928,9.19355297088623,-3.6994359493255615,2.1823322772979736,-18.690000534057617,5.460000038146973,5.880000114440918,160.9945526123047,-105.96418762207033,-190.46859741210932,-4.443630218505859,-5.757337093353272,6.9872918128967285,106.88999938964844,22.46999931335449,-30.380001068115234,12.90000057220459,1.950000047683716,-6.600000381469727
1720095564.7705688,9.181588172912598,-2.8475606441497803,0.8829830884933472,-5.110000133514404,-4.480000019073486,-1.75,159.8448944091797,-101.77312469482422,-188.87684631347656,-5.077751159667969,-4.058372020721436,8.15024471282959,75.25,19.25,-20.09000015258789,12.15000057220459,2.550000190734864,-8.100000381469727
1720095564.744804,9.105015754699709,-3.1706032752990723,1.1988469362258911,-12.949999809265137,-6.789999961853027,-3.0799999237060547,161.43394470214844,-103.10919189453124,-189.2645263671875,-4.142123699188232,-4.283305644989014,8.272283554077148,20.3700008392334,12.460000038146973,-11.760000228881836,13.950000762939451,2.8500001430511475,-9.75
1720095564.7447548,9.83485221862793,-4.187589168548584,2.3139421939849854,-27.57999992370605,4.480000019073486,1.680000066757202,160.93943786621094,-100.61646270751952,-187.4174652099609,-4.876746654510498,-4.113409042358398,9.928175926208496,-29.88999938964844,2.940000057220459,-6.369999885559082,13.950000762939451,5.25,-8.40000057220459
1720095564.7450478,9.394556999206545,-4.295269966125488,2.390515089035034,-26.25,19.38999938964844,7.630000114440918,159.6876983642578,-103.8869171142578,-190.51217651367188,-5.068179130554199,-1.1820966005325315,10.770479202270508,-102.41000366210938,-11.899999618530272,-1.3300000429153442,14.40000057220459,3.450000047683716,-8.100000381469727
1720095564.7706888,9.162445068359377,-4.206732273101807,1.0241646766662598,-15.609999656677246,17.360000610351562,8.609999656677246,163.5295867919922,-104.7759780883789,-188.031982421875,-4.776244640350342,-3.2854628562927246,4.374236106872559,-201.1100006103516,-21.06999969482422,-0.0700000002980232,13.200000762939451,3.6000001430511475,-9.15000057220459
1720095564.744953,9.265339851379396,-4.249804973602295,0.6963362693786621,-9.65999984741211,7.840000152587891,6.789999961853027,159.96092224121094,-102.86782836914062,-190.052978515625,-2.6680924892425537,-8.370392799377441,1.6152129173278809,-254.1699981689453,-11.130000114440918,-6.789999961853027,12.0,1.350000023841858,-4.950000286102295
1720095564.744901,9.425664901733398,-4.290484428405762,1.2873845100402832,-2.5899999141693115,7.909999847412109,6.159999847412109,158.29090881347656,-102.58914947509766,-190.5531311035156,-3.6491849422454834,-6.278990745544434,8.119136810302734,-233.72999572753903,4.550000190734863,-21.979999542236328,14.100000381469728,0.9000000357627869,-1.0500000715255735
1720095564.7451718,8.860939025878906,-4.151695728302002,1.809038519859314,7.070000171661377,13.369999885559082,8.539999961853027,158.5731201171875,-101.8479461669922,-190.984375,-4.158874034881592,-8.542681694030762,6.377099990844727,-173.4600067138672,-3.0799999237060547,0.3499999940395355,12.600000381469728,-1.350000023841858,5.25
1720095564.7708127,8.631219863891602,-3.56782603263855,1.304134964942932,14.489999771118164,8.470000267028809,6.789999961853027,163.17417907714844,-103.6528778076172,-187.8305053710937,-5.204575061798096,-4.474738121032715,3.955476999282837,-188.08999633789065,-2.7300000190734863,1.5399999618530271,11.25,-3.150000095367432,10.5
1720095564.745071,8.966226577758789,-3.058136463165283,0.6700142621994019,18.34000015258789,-1.399999976158142,1.75,162.97117614746094,-104.93697357177734,-187.35585021972656,-3.1993181705474854,-11.703713417053224,-1.742037057876587,-246.0500030517578,8.329999923706055,-5.110000133514404,11.550000190734863,-2.700000047683716,13.800000190734863
1720095564.745024,8.94947624206543,-2.548447132110596,0.1411815732717514,20.09000015258789,-8.819999694824219,-0.9800000190734864,160.2057647705078,-106.37468719482422,-191.65756225585932,-5.597012042999268,-16.96332550048828,1.0935590267181396,-136.7100067138672,17.219999313354492,4.619999885559082,11.100000381469728,-4.200000286102295,18.0
1720095564.745293,8.638398170471191,-2.5340895652771,0.5168681740760803,14.350000381469728,-13.300000190734863,-0.7699999809265137,163.39646911621094,-102.08495330810548,-186.57275390625,-6.750393867492676,-10.74655055999756,3.1777820587158203,-42.27999877929688,6.720000267028809,5.110000133514404,12.0,-4.050000190734863,19.200000762939453
1720095564.770934,9.05237102508545,-2.940884113311768,1.4213874340057373,1.399999976158142,-12.600000381469728,-0.4200000166893005,163.9949493408203,-108.31519317626952,-189.2232208251953,-5.683156490325928,-8.781972885131836,1.8856115341186523,-0.9800000190734864,-20.86000061035156,5.880000114440918,10.65000057220459,-2.700000047683716,20.400001525878903
1720095564.745196,9.552489280700684,-3.330928087234497,1.983720779418945,-10.010000228881836,-5.179999828338623,0.5600000023841858,162.77804565429688,-105.45841217041016,-189.26939392089844,-4.398165225982666,-4.067943572998047,-1.0361292362213137,-17.989999771118164,-31.01000022888184,-5.25,11.550000190734863,-5.700000286102295,20.700000762939453
1720095564.7451468,9.451987266540527,-3.6372203826904297,1.8616825342178345,-13.720000267028809,-1.3300000429153442,1.190000057220459,159.69546508789062,-100.96522521972656,-189.8541259765625,-4.694885730743408,-8.643183708190918,0.2895418703556061,-28.350000381469727,-16.239999771118164,-9.449999809265137,9.600000381469728,-1.950000047683716,19.5
1720095564.745437,9.157659530639648,-4.146909713745117,1.4764243364334106,-8.960000038146973,-5.389999866485596,0.6299999952316284,160.56979370117188,-104.01634979248048,-188.8587951660156,-5.441473007202148,-10.813551902770996,0.7346227765083313,9.380000114440918,-14.699999809265137,-12.18000030517578,12.0,-3.6000001430511475,21.75
1720095564.771078,9.315590858459473,-4.38380765914917,1.720500946044922,1.2599999904632568,-8.470000267028809,-0.4200000166893005,161.9341583251953,-100.52117919921876,-187.40724182128903,-4.56566858291626,-11.246667861938477,1.9119335412979128,74.41000366210938,-18.1299991607666,-13.440000534057615,12.300000190734863,-3.0,18.30000114440918
1720095564.745317,9.624276161193848,-4.199553489685059,1.964577555656433,10.359999656677246,-5.110000133514404,-0.2100000083446502,159.54177856445312,-99.8784408569336,-189.80062866210932,-4.053586483001709,-7.11890172958374,4.3526997566223145,102.2699966430664,-9.380000114440918,-19.670000076293945,11.100000381469728,-5.100000381469727,16.80000114440918
1720095564.745268,9.528559684753418,-3.7784018516540527,1.5697476863861084,17.43000030517578,-1.680000066757202,-0.3499999940395355,160.85157775878906,-103.55501556396484,-190.4611358642578,-3.948298454284668,-6.226346969604492,4.142123699188232,81.76000213623047,7.769999980926514,-12.600000381469728,12.450000762939451,-2.550000190734864,15.450000762939451
1720095564.7455678,9.030835151672363,-3.505610466003418,0.7968384027481079,21.84000015258789,-4.059999942779541,-1.4700000286102295,161.410400390625,-103.11415100097656,-189.96617126464844,-4.20194673538208,-10.26796817779541,2.730308055877685,79.37999725341797,15.119999885559082,-9.170000076293944,11.550000190734863,-5.550000190734863,12.450000762939451
1720095564.7712088,8.875295639038086,-3.139495372772217,0.9284483194351196,22.190000534057617,-10.640000343322754,-3.220000028610229,161.88441467285156,-103.17192840576172,-188.1571655273437,-4.673349380493164,-9.57402515411377,2.366586208343506,103.31999969482422,14.350000381469728,-10.920000076293944,12.750000953674316,-2.8500001430511475,12.300000190734863
1720095564.745412,9.346698760986328,-3.036600351333618,1.6678569316864014,14.630000114440918,-8.539999961853027,-1.75,160.58688354492188,-105.6126708984375,-189.14187622070312,-4.630277156829834,-7.528089046478271,3.5654330253601074,108.8499984741211,11.480000495910645,-10.149999618530272,12.0,-3.6000001430511475,8.100000381469727
1720095564.7453868,9.270126342773438,-3.2304258346557617,1.761180400848389,5.53000020980835,-0.8400000333786011,1.8899999856948853,163.32022094726562,-103.141357421875,-187.3202514648437,-4.414915561676025,-7.286405086517334,3.895654439926148,87.43000030517578,9.239999771118164,-6.650000095367432,12.300000190734863,-2.25,10.65000057220459
1720095564.7456608,8.9231538772583,-3.304605960845948,1.1892752647399902,6.230000019073486,-2.309999942779541,3.3600001335144043,162.17002868652344,-103.75015258789062,-188.12139892578125,-4.532167911529541,-8.67189884185791,3.606112480163574,62.93000030517578,4.96999979019165,-7.980000019073486,12.750000953674316,-1.350000023841858,7.650000095367432
1720095564.7713015,9.325162887573242,-2.565197467803955,1.1270596981048584,9.029999732971191,-12.25,-0.9100000262260436,161.946533203125,-102.11849975585938,-187.8306579589844,-4.28809118270874,-9.430450439453123,2.768594741821289,73.01000213623047,0.1400000005960464,-10.710000038146973,12.300000190734863,0.0,5.850000381469727
1720095564.745536,10.368471145629885,-1.9382555484771729,1.8281817436218264,-4.619999885559082,-9.869999885559082,-4.760000228881836,163.6105194091797,-103.71858978271484,-187.14414978027344,-4.103837490081787,-8.111958503723145,3.658756494522095,101.08000183105467,2.0299999713897705,-10.43000030517578,12.450000762939451,-2.1000001430511475,6.450000286102295
1720095564.7455118,9.976034164428713,-2.86431097984314,2.5532329082489014,-25.6200008392334,6.860000133514404,-0.6299999952316284,160.51502990722656,-102.42794799804688,-189.69834899902344,-4.450809001922607,-4.840853214263916,6.968148231506348,99.75,4.199999809265137,-10.359999656677246,12.15000057220459,-1.0500000715255735,1.0500000715255735
1720095564.7457538,9.155266761779783,-4.075122356414795,1.97893500328064,-32.20000076293945,14.5600004196167,5.599999904632568,163.3994140625,-103.68424987792967,-187.27682495117188,-4.690099716186523,-6.295741081237793,6.128237724304199,71.33000183105469,1.399999976158142,-1.75,13.800000190734863,-0.6000000238418579,2.1000001430511475
1720095564.7713947,8.920761108398438,-4.335949420928955,0.9164838194847108,-22.049999237060547,5.949999809265137,7.420000076293945,160.8974609375,-100.34551239013672,-187.50933837890625,-3.6850783824920654,-9.94731903076172,5.4486517906188965,73.77999877929688,1.9600000381469729,2.0299999713897705,14.100000381469728,1.2000000476837158,0.0
1720095564.745684,9.03562068939209,-4.029657363891602,0.667621374130249,-12.390000343322754,-1.820000052452088,6.369999885559082,160.16775512695312,-102.623291015625,-188.8895263671875,-3.969834566116333,-8.853759765625,6.362742424011231,93.87000274658205,13.369999885559082,1.9600000381469729,16.350000381469727,0.4500000178813934,-1.6500000953674316
1720095564.745638,9.18398094177246,-4.434058666229248,1.6295703649520874,-11.760000228881836,2.940000057220459,8.960000038146973,160.31027221679688,-105.31233978271484,-190.06808471679688,-4.647027492523193,-2.3235137462615967,9.085871696472168,71.81999969482422,17.5,0.9800000190734864,12.300000190734863,0.75,-2.1000001430511475
1720095564.745895,9.638633728027344,-3.814295530319214,2.579555034637451,-7.490000247955322,11.899999618530272,7.980000019073486,161.3058624267578,-104.65729522705078,-187.71566772460932,-4.716422080993652,-0.8016242384910583,8.274676322937012,-17.639999389648438,8.399999618530273,4.199999809265137,15.15000057220459,1.8000000715255735,-2.8500001430511475
1720095564.746043,9.29644775390625,-3.153852939605713,1.682214379310608,-2.1700000762939453,15.399999618530272,2.240000009536743,161.5680389404297,-100.72047424316406,-187.1597442626953,-3.809509754180908,-7.217010974884033,5.860231876373291,-67.05999755859375,-6.159999847412109,11.40999984741211,13.800000190734863,-0.75,-3.6000001430511475
1720095564.7458458,8.810688018798828,-3.519967794418335,0.016750356182456,4.130000114440918,6.929999828338623,2.380000114440918,158.66688537597656,-102.10799407958984,-189.348876953125,-4.424487113952637,-7.652520179748535,5.319434642791748,-79.23999786376953,-9.3100004196167,19.600000381469727,12.450000762939451,0.0,-1.6500000953674316
1720095564.745777,8.992548942565918,-3.350071430206299,0.3972227573394775,4.130000114440918,-7.28000020980835,-0.1400000005960464,162.82810974121094,-107.04779815673828,-188.57017517089844,-5.312255859375,-6.771929740905762,6.05884313583374,-94.01000213623048,-16.59000015258789,24.850000381469727,13.050000190734863,1.8000000715255735,0.1500000059604644
1720095564.7459958,9.294054985046388,-3.266319513320923,1.524282455444336,-0.3499999940395355,-3.3600001335144043,0.9100000262260436,159.8320770263672,-100.45567321777344,-189.62452697753903,-4.055979251861572,-0.6101915836334229,6.149773597717285,-181.72000122070312,-24.5,8.819999694824219,13.050000190734863,-1.950000047683716,3.0
1720095564.7460878,9.286876678466797,-3.266319513320923,1.876039981842041,-6.369999885559082,6.159999847412109,2.940000057220459,165.5048828125,-105.06917572021484,-184.592529296875,-4.295269966125488,-6.932254791259766,3.6204700469970703,-258.7900085449219,-18.96999931335449,9.730000495910645,13.050000190734863,-1.0500000715255735,3.750000238418579
1720095564.7459188,9.179195404052734,-3.519967794418335,1.25866961479187,-7.070000171661377,5.670000076293945,2.0299999713897705,161.6235809326172,-105.788330078125,-189.039779663086,-5.49411678314209,-13.582146644592283,-1.148595929145813,-255.57000732421875,-17.149999618530273,7.28000020980835,11.700000762939451,-3.300000190734864,12.450000762939451
1720095564.74587,8.971012115478516,-3.747294187545776,0.6939433217048645,1.6100000143051147,-3.920000076293945,-0.5600000023841858,163.25,-102.87635040283205,-188.2541046142578,-4.699671268463135,-14.35027027130127,1.7587873935699463,-118.6500015258789,-33.31999969482422,10.5,10.950000762939451,-4.200000286102295,16.05000114440918
1720095564.7461348,8.994941711425781,-3.658756494522095,1.1844894886016846,9.65999984741211,-10.010000228881836,-1.8899999856948853,162.08303833007812,-106.1289520263672,-188.82286071777344,-3.4194657802581787,-12.952811241149902,2.409658432006836,-15.470000267028809,-17.219999313354492,10.149999618530272,10.65000057220459,-3.300000190734864,17.100000381469727
1720095564.746183,9.188767433166504,-3.512789011001587,1.7851094007492063,10.010000228881836,-8.329999923706055,-1.190000057220459,162.235107421875,-104.2960205078125,-188.4989624023437,-6.355564117431641,0.4402951002120971,4.958105564117432,1.1200000047683716,-10.220000267028809,-11.760000228881836,11.25,-3.6000001430511475,15.90000057220459
1720095564.7462728,9.093050956726074,-4.338342189788818,1.1055235862731934,6.440000057220459,-1.6100000143051147,3.3600001335144043,159.80807495117188,-101.22130584716795,-187.65728759765625,-3.687471389770508,-10.59101104736328,1.7372512817382812,-4.96999979019165,-14.489999771118164,-6.369999885559082,12.0,-3.900000095367432,17.25
1720095564.745972,8.901618003845215,-4.1493024826049805,1.081594467163086,15.470000267028809,-8.260000228881836,4.269999980926514,162.48094177246094,-102.72312927246094,-186.53956604003903,-4.620705604553223,-12.675233840942385,1.7157150506973269,39.20000076293945,-9.65999984741211,-6.720000267028809,12.15000057220459,-4.050000190734863,16.5
1720095564.746367,9.418486595153809,-3.070101022720337,1.5003533363342283,21.979999542236328,-13.300000190734863,0.4900000095367431,159.36834716796875,-99.83617401123048,-188.8106689453125,-5.063393592834473,-8.84658145904541,1.3137065172195437,87.77999877929688,-3.220000028610229,-12.31999969482422,13.050000190734863,-3.750000238418579,14.700000762939451
1720095564.746297,9.741528511047363,-2.488624334335327,1.8784328699111936,13.720000267028809,-7.909999847412109,-2.5899999141693115,161.9974822998047,-102.6673355102539,-188.6292266845703,-4.230661392211914,-7.169152736663818,3.527146577835083,117.5999984741211,3.3600001335144043,-16.450000762939453,12.0,-1.2000000476837158,8.850000381469727
1720095564.746112,9.449594497680664,-3.1729960441589355,1.8114314079284668,-0.7699999809265137,1.75,-0.8400000333786011,162.09300231933594,-101.32709503173828,-186.14930725097656,-4.319199085235596,-8.832223892211914,3.725757837295532,125.51000213623048,8.260000228881836,-13.579999923706056,12.450000762939451,-1.2000000476837158,8.100000381469727
1720095564.7463198,8.994941711425781,-3.9650487899780273,1.4070299863815308,-4.409999847412109,2.240000009536743,3.220000028610229,162.76182556152344,-103.3023452758789,-186.6441192626953,-4.402950763702393,-8.77479362487793,3.6156840324401855,132.16000366210938,11.829999923706056,-12.039999961853027,14.250000953674316,-2.400000095367432,7.500000476837158
1720095564.74625,9.071514129638672,-3.94111967086792,1.1557745933532717,-0.9100000262260436,-3.3600001335144043,6.300000190734863,162.46505737304688,-104.3263931274414,-187.80496215820312,-4.94853401184082,-9.423272132873535,3.7999379634857178,148.61000061035156,17.920000076293945,-9.239999771118164,13.350000381469728,-2.1000001430511475,3.750000238418579
1720095564.7464368,9.38498592376709,-2.584340810775757,1.25866961479187,2.799999952316284,-7.699999809265137,2.380000114440918,161.6561279296875,-106.06126403808594,-189.2285614013672,-5.625726699829102,-6.305312633514404,6.496745586395264,143.00999450683594,15.539999961853027,-12.109999656677246,13.500000953674316,0.4500000178813934,1.350000023841858
1720095564.7462049,9.564454078674316,-2.151224374771118,1.7683590650558472,-3.220000028610229,-2.240000009536743,-4.480000019073486,159.41534423828125,-104.34626007080078,-188.6291656494141,-4.017692565917969,-2.0124356746673584,6.403421878814697,107.4499969482422,-0.7699999809265137,-3.0799999237060547,12.90000057220459,1.2000000476837158,-1.350000023841858
1720095564.746461,9.243803977966309,-2.7231295108795166,1.5482115745544434,-14.0,5.740000247955322,-4.96999979019165,158.90713500976562,-101.0958480834961,-189.8719940185547,-3.5797905921936035,-0.667621374130249,5.886553764343262,18.1299991607666,-1.399999976158142,4.199999809265137,13.65000057220459,1.2000000476837158,-3.150000095367432
1720095564.746343,9.27969741821289,-3.2160685062408447,0.964341938495636,-20.15999984741211,2.7300000190734863,-5.110000133514404,159.20510864257812,-103.2713851928711,-190.2596435546875,-4.266555309295654,-7.724307537078857,5.831517219543457,-54.040000915527344,-4.340000152587891,12.8100004196167,14.100000381469728,0.4500000178813934,-1.0500000715255735
1720095564.7516758,9.535738945007324,-3.646791934967041,1.0145930051803589,-21.489999771118164,-0.2100000083446502,-5.25,160.50350952148438,-100.27088165283205,-186.9327392578125,-5.532403469085693,-8.05452823638916,7.496981143951416,-64.54000091552734,-14.279999732971191,19.040000915527344,12.600000381469728,0.9000000357627869,-0.6000000238418579
1720095564.7464128,9.229446411132812,-3.823867082595825,1.5003533363342283,-23.729999542236328,2.940000057220459,-2.7300000190734863,160.97962951660156,-102.48770904541016,-188.1699981689453,-4.572847366333008,-6.982505798339844,4.82649564743042,-83.6500015258789,-24.850000381469727,31.780000686645508,12.750000953674316,0.9000000357627869,-0.6000000238418579
1720095564.7465568,9.315590858459473,-4.189981937408447,1.462066888809204,-22.26000022888184,6.230000019073486,1.4700000286102295,159.66458129882812,-103.61200714111328,-190.042724609375,-3.759258508682251,-1.1198810338974,5.841088771820068,-176.9600067138672,-19.600000381469727,10.920000076293944,12.15000057220459,0.75,0.4500000178813934
1720095564.7464838,9.160052299499512,-4.474738121032715,1.3496001958847046,-15.609999656677246,5.179999828338623,3.569999933242798,161.98248291015625,-103.71085357666016,-187.55242919921875,-2.5316967964172363,-6.128237724304199,4.000942230224609,-241.9199981689453,-10.779999732971191,3.7100000381469727,13.500000953674316,-1.0500000715255735,4.650000095367432
1720095564.751709,9.411307334899902,-4.407736778259277,1.622391700744629,-2.7300000190734863,1.820000052452088,3.220000028610229,161.77093505859375,-103.95638275146484,-188.856201171875,-3.393143653869629,-13.436179161071776,2.670485496520996,-206.0800018310547,3.7100000381469727,16.239999771118164,12.600000381469728,-1.8000000715255735,8.100000381469727
1720095564.7465088,9.44480800628662,-3.6156840324401855,1.6487137079238892,8.329999923706055,1.6100000143051147,0.1400000005960464,160.72186279296875,-102.18341064453124,-188.534896850586,-4.670956611633301,-7.853524208068848,4.161267280578613,-170.72999572753906,10.850000381469728,6.019999980926514,11.700000762939451,-2.550000190734864,11.700000762939451
1720095564.751869,8.944690704345703,-3.041386127471924,0.9021263718605042,13.789999961853027,1.1200000047683716,-2.870000123977661,162.1168975830078,-105.08146667480467,-189.33834838867188,-4.8097453117370605,-11.057628631591797,2.68245005607605,-140.6999969482422,9.3100004196167,4.199999809265137,11.850000381469728,-2.700000047683716,14.250000953674316
1720095564.7517369,8.734114646911621,-2.924133777618408,0.3062922358512878,12.600000381469728,-5.110000133514404,-4.409999847412109,158.52174377441406,-101.5789794921875,-191.3569183349609,-5.333792209625244,-13.43857192993164,2.7231295108795166,-57.400001525878906,5.179999828338623,17.71000099182129,11.40000057220459,-4.5,18.75
1720095564.751843,9.054763793945312,-2.988742113113404,0.308685153722763,6.230000019073486,-11.0600004196167,-4.409999847412109,159.76272583007812,-99.63092803955078,-188.2161865234375,-5.802802085876465,-10.478544235229492,2.845167636871338,-22.75,-1.190000057220459,12.8100004196167,11.25,-4.200000286102295,20.100000381469727
1720095564.751576,9.394556999206545,-3.0677082538604736,1.1940611600875854,-3.7799999713897705,-8.399999618530273,-2.940000057220459,162.06341552734375,-102.65345764160156,-186.6645965576172,-5.058607578277588,-5.441473007202148,2.220618724822998,-25.96999931335449,-9.3100004196167,6.860000133514404,12.15000057220459,-4.050000190734863,19.950000762939453
1720095564.751922,9.413700103759766,-3.4051082134246826,1.904754877090454,-13.020000457763672,-0.9800000190734864,-0.7699999809265137,163.53941345214844,-104.49412536621094,-186.5802154541016,-4.998785018920898,-10.007142066955566,0.5025107264518738,-14.90999984741211,-12.949999809265137,2.5899999141693115,10.65000057220459,-3.300000190734864,20.55000114440918
1720095564.7517908,9.059550285339355,-4.053586483001709,1.5194966793060305,-13.789999961853027,0.8400000333786011,2.5199999809265137,160.35748291015625,-100.78240966796876,-187.4429931640625,-4.656599044799805,-8.028206825256348,0.4857603311538696,24.920000076293945,-19.950000762939453,-7.210000038146973,11.100000381469728,-4.650000095367432,21.450000762939453
1720095564.7520258,9.212696075439451,-4.376628875732422,1.268241286277771,-6.300000190734863,-5.599999904632568,3.7799999713897705,161.37106323242188,-100.68315887451172,-186.87144470214844,-4.194767951965332,-12.476622581481934,2.5460541248321533,85.54000091552734,-11.970000267028809,-12.8100004196167,11.550000190734863,-2.25,19.200000762939453
1720095564.7517638,9.614705085754396,-4.154088497161865,1.584105134010315,3.150000095367432,-7.28000020980835,3.7100000381469727,162.2505645751953,-102.97262573242188,-188.4046630859375,-5.221325397491455,-7.291191101074219,3.5941479206085205,131.32000732421875,-3.150000095367432,-10.640000343322754,11.550000190734863,-4.050000190734863,19.80000114440918
1720095564.7520528,9.451987266540527,-3.823867082595825,1.560176134109497,8.75,-3.289999961853028,3.990000009536743,160.1656494140625,-100.46424102783205,-185.84326171875,-4.142123699188232,-8.39432144165039,4.685314178466797,139.72000122070312,3.7100000381469727,-12.390000343322754,10.350000381469728,-4.5,14.250000953674316
1720095564.751948,9.40173625946045,-3.7903664112091056,1.4907817840576172,8.399999618530273,-0.4200000166893005,4.900000095367432,161.11154174804688,-101.97915649414062,-188.0807342529297,-4.314413070678711,-8.356035232543945,3.8597607612609854,142.58999633789062,19.040000915527344,-16.940000534057617,12.15000057220459,-3.6000001430511475,10.050000190734863
1720095564.7521298,9.449594497680664,-3.740115404129028,1.3448143005371094,9.3100004196167,0.2800000011920929,5.389999866485596,161.29470825195312,-106.2595672607422,-188.8407440185547,-5.056214809417725,-8.810688018798828,3.421858549118042,161.35000610351562,25.549999237060547,-16.309999465942383,12.600000381469728,-1.0500000715255735,7.650000095367432
1720095564.752,9.329948425292969,-3.462538003921509,1.246705174446106,10.43000030517578,0.7699999809265137,5.949999809265137,161.94993591308594,-103.43791961669922,-187.3636474609375,-5.049036026000977,-6.712107181549072,4.362271308898926,162.3300018310547,24.920000076293945,-13.510000228881836,10.950000762939451,-2.400000095367432,5.550000190734863
1720095564.752154,9.222268104553224,-3.2352118492126465,1.131845474243164,9.9399995803833,0.0,6.369999885559082,160.98773193359375,-103.80613708496094,-187.56265258789065,-5.247647285461426,-5.843481540679932,5.568296909332275,136.63999938964844,18.34000015258789,-11.619999885559082,12.90000057220459,-0.75,4.200000286102295
1720095564.7520788,9.066728591918944,-3.295034408569336,1.081594467163086,7.349999904632568,0.0,7.139999866485596,160.66445922851562,-103.23584747314452,-188.7210693359375,-4.709243297576904,-6.85807466506958,5.025106906890869,100.66000366210938,10.43000030517578,-5.25,12.0,0.1500000059604644,1.8000000715255735
1720095564.7522538,9.03562068939209,-2.5891265869140625,1.2706341743469238,7.139999866485596,-3.849999904632568,6.369999885559082,160.42213439941406,-101.60816192626952,-188.9916534423828,-4.903068542480469,-5.826731204986572,5.599404811859131,70.06999969482422,8.260000228881836,-1.1200000047683716,12.300000190734863,1.0500000715255735,0.0
1720095564.7521048,9.877924919128418,-1.3854937553405762,1.2060257196426392,1.190000057220459,-7.630000114440918,-5.740000247955322,163.195556640625,-105.52808380126952,-189.1443634033203,-5.178253173828125,-6.941826343536377,5.623333930969238,44.2400016784668,0.2800000011920929,5.740000247955322,12.15000057220459,0.4500000178813934,1.350000023841858
1720095564.752302,9.507023811340332,-2.6465563774108887,1.464459776878357,-15.470000267028809,5.25,-6.369999885559082,160.8558349609375,-104.31468963623048,-187.6519317626953,-4.594383716583252,-6.774322986602783,5.4486517906188965,31.56999969482422,-10.010000228881836,11.760000228881836,11.40000057220459,0.75,-0.3000000119209289
1720095564.75218,9.215088844299316,-3.4601449966430664,1.0145930051803589,-29.049999237060547,8.819999694824219,-1.2599999904632568,159.26426696777344,-100.61865234375,-189.2290496826172,-4.867175102233887,-5.288326740264893,5.496510028839111,5.110000133514404,-11.899999618530272,12.25,13.050000190734863,0.1500000059604644,-1.5
1720095564.752422,9.19355297088623,-3.924369335174561,0.6341206431388855,-24.920000076293945,0.1400000005960464,0.7699999809265137,161.03956604003906,-103.31443786621094,-189.85899353027344,-5.326613426208496,-6.819787979125977,5.496510028839111,-15.470000267028809,-16.59000015258789,19.809999465942383,11.100000381469728,0.0,-1.8000000715255735
1720095564.752204,9.112194061279297,-3.900440216064453,1.1438100337982178,-20.3700008392334,-2.6600000858306885,-1.399999976158142,161.9084014892578,-102.88710021972656,-186.284423828125,-4.862389087677002,-5.900911331176758,5.278755187988281,-39.40999984741211,-16.030000686645508,21.979999542236328,11.40000057220459,0.6000000238418579,0.0
1720095564.752445,9.093050956726074,-4.072729587554932,1.7133221626281738,-16.239999771118164,2.799999952316284,1.6100000143051147,161.95977783203125,-103.15606689453124,-185.91189575195312,-3.421858549118042,-2.7518444061279297,5.991841793060303,-128.10000610351562,-7.349999904632568,6.720000267028809,12.15000057220459,-0.3000000119209289,-0.9000000357627869
1720095564.7523248,9.40891456604004,-4.03683614730835,1.4524952173233032,-12.390000343322754,3.920000076293945,4.059999942779541,161.78506469726562,-103.9534149169922,-188.43521118164065,-2.2804415225982666,-4.084693908691406,4.821709632873535,-162.39999389648438,-13.720000267028809,-1.8899999856948853,12.90000057220459,-0.6000000238418579,4.200000286102295
1720095564.752493,9.554882049560549,-4.178017616271973,1.237133502960205,-5.53000020980835,2.0299999713897705,5.320000171661377,158.7914276123047,-104.24126434326172,-188.7465667724609,-4.390986442565918,-13.831008911132812,4.714028835296631,-128.3800048828125,3.920000076293945,2.799999952316284,12.15000057220459,-0.4500000178813934,6.150000095367432
1720095564.75235,9.44480800628662,-4.000942230224609,1.3448143005371094,2.0999999046325684,1.820000052452088,5.599999904632568,159.09718322753906,-103.49510192871094,-188.4761505126953,-4.915033340454102,-7.571161270141602,4.611134052276611,-109.05999755859376,8.539999961853027,-0.699999988079071,10.800000190734863,-3.0,9.0
1720095564.7525518,9.47113037109375,-3.5367181301116943,1.5888910293579102,4.96999979019165,4.269999980926514,3.430000066757202,163.05169677734375,-104.15945434570312,-187.6391143798828,-5.297898292541504,-4.302448749542236,4.891104221343994,-141.5399932861328,14.06999969482422,-10.920000076293944,11.100000381469728,-3.0,9.450000762939451
1720095564.7526278,8.896832466125488,-2.9911351203918457,0.6221560835838318,5.670000076293945,2.380000114440918,-3.990000009536743,160.78900146484375,-105.3691177368164,-188.11875915527344,-4.86956787109375,-13.71614933013916,3.2423903942108154,-92.33000183105467,7.420000076293945,12.460000038146973,10.800000190734863,-2.550000190734864,12.15000057220459
1720095564.7782688,8.966226577758789,-3.139495372772217,0.2632198929786682,3.5,-3.920000076293945,-4.480000019073486,158.67587280273438,-102.3858871459961,-190.2393035888672,-5.520439147949219,-12.084185600280762,5.111251831054688,-40.7400016784668,1.9600000381469729,10.149999618530272,9.600000381469728,-3.750000238418579,14.250000953674316
1720095564.7524688,9.169623374938965,-3.211282730102539,0.746587336063385,-0.9100000262260436,-6.300000190734863,-2.7300000190734863,161.88485717773438,-102.89205169677734,-186.986068725586,-5.283541202545166,-6.707321166992188,2.58673357963562,-22.540000915527344,-1.2599999904632568,10.5,9.300000190734863,-2.1000001430511475,16.350000381469727
1720095564.7526038,9.435236930847168,-3.3357138633728027,1.3854937553405762,-7.349999904632568,-3.220000028610229,-0.8400000333786011,161.87808227539062,-100.2531967163086,-187.92010498046875,-5.082536697387695,-7.963598251342773,2.347442865371704,-27.440000534057617,-4.829999923706055,8.890000343322754,9.450000762939451,-2.400000095367432,16.05000114440918
1720095564.7527478,9.310805320739746,-3.603719472885132,1.6008554697036743,-10.56999969482422,0.2800000011920929,0.0,159.65557861328125,-103.33411407470705,-189.1522827148437,-5.362506866455078,-7.458694458007812,1.8640754222869875,-25.059999465942383,-9.3100004196167,2.6600000858306885,10.800000190734863,-3.750000238418579,16.05000114440918
1720095564.7784128,8.990156173706055,-3.921976327896118,1.3735291957855225,-8.680000305175781,-0.9800000190734864,1.2599999904632568,162.09378051757812,-104.80654907226562,-188.868896484375,-4.580026149749756,-8.430214881896973,1.5099250078201294,-8.609999656677246,-19.530000686645508,-12.529999732971191,9.0,-4.050000190734863,16.05000114440918
1720095564.7525778,9.31319808959961,-4.276126861572266,1.4429235458374023,-3.289999961853028,-3.220000028610229,3.849999904632568,161.0438232421875,-104.0741195678711,-187.0497894287109,-4.199553489685059,-8.375178337097168,2.91695499420166,31.01000022888184,-16.3799991607666,-13.649999618530272,9.75,-2.8500001430511475,18.30000114440918
1720095564.752699,9.607525825500488,-4.213911056518555,1.5673547983169556,3.990000009536743,-1.6100000143051147,5.320000171661377,162.37818908691406,-102.18519592285156,-187.28463745117188,-4.673349380493164,-9.507023811340332,4.094265937805176,73.01000213623047,-6.159999847412109,-10.5,10.5,-3.750000238418579,16.80000114440918
1720095564.752916,9.339520454406738,-3.924369335174561,1.3448143005371094,11.6899995803833,1.0499999523162842,4.96999979019165,162.3799285888672,-100.58489990234376,-186.4402313232422,-4.852817535400391,-9.2725191116333,4.891104221343994,101.56999969482422,2.1700000762939453,-9.520000457763672,11.100000381469728,-2.25,17.25
1720095564.752868,8.992548942565918,-3.596540927886963,0.8758043646812439,17.850000381469727,-0.9800000190734864,3.5,160.42288208007812,-105.56842041015624,-187.8712615966797,-4.725993633270264,-8.626433372497559,4.714028835296631,118.58000183105467,9.9399995803833,-14.90999984741211,10.200000762939451,-3.0,12.750000953674316
1720095564.752723,9.248589515686035,-3.352464199066162,0.9404128789901732,17.149999618530273,-3.7799999713897705,2.240000009536743,160.95059204101562,-99.01419067382812,-186.2924041748047,-4.955712795257568,-7.0830078125,3.826260089874268,125.58000183105467,18.96999931335449,-19.040000915527344,10.5,-2.550000190734864,9.90000057220459
1720095564.7528198,9.590775489807127,-3.046171903610229,1.2802058458328247,11.970000267028809,-1.399999976158142,1.75,161.69215393066406,-103.13362121582033,-187.72853088378903,-4.946141242980957,-7.745843410491943,4.656599044799805,136.36000061035156,18.76000022888184,-14.980000495910645,11.850000381469728,-2.700000047683716,7.050000190734863
1720095564.7530558,9.08108615875244,-2.86431097984314,1.131845474243164,7.769999980926514,-0.4200000166893005,1.3300000429153442,160.03880310058594,-104.73114013671876,-189.6828765869141,-5.283541202545166,-6.125844955444336,4.68770694732666,133.0,17.56999969482422,-7.420000076293945,10.200000762939451,-0.6000000238418579,5.850000381469727
1720095564.752962,9.241411209106444,-3.0509579181671143,0.9954497814178468,3.849999904632568,-3.990000009536743,-0.1400000005960464,162.05575561523438,-101.05514526367188,-186.10086059570312,-5.333792209625244,-7.731485843658447,4.929390907287598,108.70999908447266,11.899999618530272,-7.559999942779541,11.40000057220459,-0.75,3.300000190734864
1720095564.752844,9.451987266540527,-3.1658174991607666,1.318492412567139,-1.9600000381469729,-3.0799999237060547,-0.3499999940395355,162.25997924804688,-102.97064971923828,-188.1240081787109,-4.845638751983643,-7.444336891174316,4.249804973602295,91.20999908447266,7.909999847412109,-9.380000114440918,11.40000057220459,0.4500000178813934,0.0
1720095564.752939,9.260554313659668,-3.105994701385498,1.5003533363342283,-5.949999809265137,-0.6299999952316284,1.4700000286102295,160.88836669921875,-104.5876235961914,-187.84071350097656,-4.718814849853516,-6.829359531402588,4.709243297576904,96.38999938964844,5.53000020980835,-5.179999828338623,11.40000057220459,0.6000000238418579,-1.8000000715255735
1720095564.7531288,9.607525825500488,-3.362035751342773,1.4596738815307615,-10.640000343322754,0.7699999809265137,2.870000123977661,161.98422241210938,-102.11056518554688,-186.70802307128903,-5.180645942687988,-5.388829231262207,5.996627807617188,79.59000396728516,6.510000228881836,1.2599999904632568,10.950000762939451,0.6000000238418579,-2.700000047683716
1720095564.753105,9.475915908813477,-3.704221725463867,1.49317467212677,-11.760000228881836,3.0799999237060547,4.760000228881836,159.83843994140625,-103.37440490722656,-189.8615875244141,-4.8097453117370605,-6.623569488525391,6.061236381530762,51.02999877929688,4.829999923706055,0.2800000011920929,10.5,2.550000190734864,-3.150000095367432
1720095564.7529848,9.45438003540039,-3.701828718185425,1.581712245941162,-8.609999656677246,4.269999980926514,4.550000190734863,162.03680419921875,-105.57911682128906,-187.88397216796875,-4.180410385131836,-7.408443450927734,6.061236381530762,50.33000183105469,4.130000114440918,-1.190000057220459,11.850000381469728,2.25,-4.350000381469727
1720095564.7530088,9.207910537719728,-3.840617418289185,1.3448143005371094,-4.130000114440918,5.949999809265137,3.569999933242798,162.54983520507812,-104.3085479736328,-185.27902221679688,-5.027499675750732,-4.364664554595947,7.48262357711792,44.869998931884766,6.369999885559082,-3.220000028610229,12.15000057220459,1.350000023841858,-4.350000381469727
1720095564.7786498,9.157659530639648,-3.785580635070801,1.177310824394226,-0.1400000005960464,5.179999828338623,2.5899999141693115,158.01646423339844,-100.4086456298828,-189.46383666992188,-5.04425048828125,-5.640084266662598,6.82218074798584,23.309999465942383,4.96999979019165,1.75,12.300000190734863,2.8500001430511475,-6.150000095367432
1720095564.7532248,9.0978364944458,-3.618077039718628,0.8853759765625,1.4700000286102295,3.5,2.870000123977661,161.52389526367188,-102.3296890258789,-189.26712036132807,-4.256983280181885,-5.084929466247559,7.059078693389893,8.539999961853027,0.6299999952316284,7.769999980926514,12.750000953674316,2.8500001430511475,-4.200000286102295
1720095564.75308,9.167230606079102,-3.247176170349121,0.9164838194847108,2.450000047683716,0.0,0.8400000333786011,161.8617401123047,-102.61713409423828,-186.51663208007807,-5.75494384765625,-6.077986717224121,7.169152736663818,-13.789999961853027,-7.699999809265137,13.859999656677246,11.100000381469728,3.0,-4.650000095367432
1720095564.7787929,9.442415237426758,-3.139495372772217,1.39745831489563,-1.9600000381469729,1.9600000381469729,-1.2599999904632568,160.22032165527344,-106.0918426513672,-190.0654754638672,-5.384043216705322,-3.3979294300079346,5.362506866455078,-86.66000366210938,-16.65999984741211,10.640000343322754,12.0,1.950000047683716,-3.6000001430511475
1720095564.753342,9.140909194946287,-3.3476784229278564,1.462066888809204,-7.630000114440918,6.090000152587891,-0.5600000023841858,160.771484375,-104.05266571044922,-189.0067749023437,-4.388593673706055,-6.396243095397949,4.974855899810791,-109.83000183105467,-20.09000015258789,11.270000457763672,12.0,0.6000000238418579,-3.450000047683716
1720095564.7532008,9.162445068359377,-3.7209720611572266,1.1222739219665527,-7.980000019073486,4.059999942779541,0.2100000083446502,161.10934448242188,-103.85931396484376,-190.09625244140625,-4.931783676147461,-7.9994916915893555,5.6951212882995605,-91.13999938964844,-21.0,12.109999656677246,10.65000057220459,-0.4500000178813934,-1.0500000715255735
1720095564.753249,9.329948425292969,-3.8741180896759033,1.0935590267181396,-4.760000228881836,0.4200000166893005,0.699999988079071,159.79176330566406,-103.10443878173828,-190.0937957763672,-5.089715480804443,-8.877689361572266,5.683156490325928,-62.790000915527344,-23.59000015258789,12.390000343322754,11.25,-1.0500000715255735,-0.75
1720095564.77889,9.133729934692385,-3.833438873291016,1.2323477268218994,-0.1400000005960464,-0.4900000095367431,0.4900000095367431,159.5904998779297,-102.78824615478516,-188.77471923828125,-4.355092525482178,-4.934176445007324,6.558960914611816,-93.16999816894533,-18.479999542236328,-0.3499999940395355,10.950000762939451,-1.0500000715255735,0.75
1720095564.753481,9.01169204711914,-3.5510756969451904,1.5290682315826416,2.5199999809265137,0.0,-0.2100000083446502,162.20474243164062,-102.1429214477539,-186.294677734375,-4.92221212387085,-7.446730136871338,4.067943572998047,-99.12000274658205,-14.5600004196167,4.199999809265137,10.5,-0.75,3.900000095367432
1720095564.7533188,9.033227920532228,-3.5247535705566406,1.416601538658142,2.6600000858306885,0.8400000333786011,-0.4900000095367431,156.9335479736328,-99.6831512451172,-188.6270446777344,-4.778637409210205,-8.961441040039062,3.81908130645752,-82.45999908447266,-9.449999809265137,7.559999942779541,10.65000057220459,-1.350000023841858,4.350000381469727
1720095564.75341,9.14808750152588,-3.924369335174561,1.0696299076080322,3.5,-0.9800000190734864,4.619999885559082,162.77716064453125,-106.49895477294922,-187.7716217041016,-5.305077075958252,-8.451751708984375,4.5010600090026855,-53.27000045776367,-6.789999961853027,6.019999980926514,10.5,-0.6000000238418579,6.150000095367432
1720095564.7790508,9.485487937927246,-3.5367181301116943,1.1462029218673706,4.269999980926514,-4.690000057220459,5.949999809265137,160.86099243164062,-103.55303192138672,-190.18048095703125,-5.453437328338623,-8.339284896850586,4.630277156829834,-28.13999938964844,-13.440000534057615,4.199999809265137,12.0,-1.2000000476837158,7.800000190734863
1720095564.7535858,9.447200775146484,-3.5462896823883057,1.3160994052886963,5.039999961853027,-2.380000114440918,5.740000247955322,161.41729736328125,-101.23300170898438,-187.81033325195312,-5.149538040161133,-6.274205207824707,3.795152187347412,-27.64999961853028,-19.46000099182129,2.5899999141693115,11.550000190734863,-0.1500000059604644,8.100000381469727
1720095564.753387,9.23662567138672,-3.55825424194336,1.2443121671676636,4.96999979019165,-0.4200000166893005,5.179999828338623,161.32174682617188,-103.05403900146484,-186.4502716064453,-4.637455940246582,-6.877217769622803,3.828652858734131,-47.810001373291016,-15.890000343322754,3.289999961853028,10.350000381469728,-3.750000238418579,7.200000286102295
1720095564.753506,9.325162887573242,-3.4673237800598145,1.1749178171157837,4.690000057220459,-2.5199999809265137,3.150000095367432,161.61000061035156,-100.99142456054688,-187.06787109375,-5.10407304763794,-8.899225234985352,3.900440216064453,-48.02000045776367,-7.420000076293945,8.680000305175781,9.0,-2.700000047683716,8.40000057220459
1720095564.779147,9.303627014160156,-3.49843168258667,1.2036327123641968,5.039999961853027,-3.569999933242798,1.8899999856948853,160.10179138183594,-103.1179656982422,-187.01417541503903,-5.924840450286865,-13.101171493530272,3.840617418289185,-8.539999961853027,-3.009999990463257,23.450000762939453,9.75,-3.0,8.550000190734863
1720095564.753708,9.243803977966309,-3.4386088848114014,1.454888105392456,4.900000095367432,-3.7100000381469727,0.4200000166893005,160.45291137695312,-103.48138427734376,-190.0248565673828,-6.140202045440674,-6.099522590637207,4.682920932769775,5.179999828338623,-19.809999465942383,22.68000030517578,10.950000762939451,-1.2000000476837158,8.850000381469727
1720095564.7535288,9.32277011871338,-3.4242515563964844,1.5888910293579102,4.340000152587891,-2.7300000190734863,-0.6299999952316284,159.3031463623047,-103.81031036376952,-189.65489196777344,-4.1205878257751465,-7.025578022003174,3.8836898803710938,-31.780000686645508,-20.86000061035156,21.770000457763672,11.550000190734863,-1.5,8.700000762939453
1720095564.75366,9.468737602233888,-3.491252899169922,1.4596738815307615,3.3600001335144043,-1.5399999618530271,0.0,159.4621124267578,-100.09622192382812,-187.1751708984375,-5.005963802337647,-7.382121562957764,3.988977909088135,-52.150001525878906,-8.260000228881836,23.520000457763672,9.450000762939451,-1.2000000476837158,8.700000762939453
1720095564.779301,9.674527168273926,-3.2830698490142822,1.5697476863861084,1.9600000381469729,-1.3300000429153442,-1.4700000286102295,160.6007080078125,-101.36956787109376,-188.6701812744141,-5.7932305335998535,-9.291662216186523,4.268948078155518,-38.290000915527344,-7.559999942779541,25.40999984741211,10.050000190734863,-1.5,9.15000057220459
1720095564.7537818,9.418486595153809,-3.08206558227539,1.8186101913452148,-0.1400000005960464,2.870000123977661,-5.039999961853027,158.8874053955078,-102.14035034179688,-188.9355316162109,-4.816924095153809,-7.372550010681152,4.300055980682373,-28.90999984741211,-10.710000038146973,21.770000457763672,9.600000381469728,-1.8000000715255735,12.450000762939451
1720095564.7536838,9.351485252380373,-3.187353610992432,1.4309589862823486,-3.289999961853028,8.399999618530273,-9.029999732971191,163.30355834960938,-101.26515197753906,-185.86605834960932,-4.725993633270264,-7.054293155670166,4.388593673706055,-26.950000762939453,-3.920000076293945,17.780000686645508,8.550000190734863,-3.900000095367432,11.850000381469728
1720095564.7793248,9.39934253692627,-3.261533737182617,1.0672370195388794,-2.5199999809265137,6.300000190734863,-9.520000457763672,159.3966064453125,-99.8302230834961,-187.9686889648437,-4.86956787109375,-8.049742698669434,4.465166568756104,-19.31999969482422,-1.3300000429153442,14.279999732971191,9.15000057220459,-2.1000001430511475,13.200000762939451
