relative_id,timestamp,CHS_IMU9_Acc_X,CHS_IMU9_Acc_Y,CHS_IMU9_Acc_Z,CHS_IMU9_Gyro_X,CHS_IMU9_Gyro_Y,CHS_IMU9_Gyro_Z,CHS_IMU9_Magn_X,CHS_IMU9_Magn_Y,CHS_IMU9_Magn_Z,RF_IMU9_Acc_X,RF_IMU9_Acc_Y,RF_IMU9_Acc_Z,RF_IMU9_Gyro_X,RF_IMU9_Gyro_Y,RF_IMU9_Gyro_Z,RF_IMU9_Magn_X,RF_IMU9_Magn_Y,RF_IMU9_Magn_Z,LU_IMU9_Acc_X,LU_IMU9_Acc_Y,LU_IMU9_Acc_Z,LU_IMU9_Gyro_X,LU_IMU9_Gyro_Y,LU_IMU9_Gyro_Z,LU_IMU9_Magn_X,LU_IMU9_Magn_Y,LU_IMU9_Magn_Z,LF_IMU9_Acc_X,LF_IMU9_Acc_Y,LF_IMU9_Acc_Z,LF_IMU9_Gyro_X,LF_IMU9_Gyro_Y,LF_IMU9_Gyro_Z,LF_IMU9_Magn_X,LF_IMU9_Magn_Y,LF_IMU9_Magn_Z,RU_IMU9_Acc_X,RU_IMU9_Acc_Y,RU_IMU9_Acc_Z,RU_IMU9_Gyro_X,RU_IMU9_Gyro_Y,RU_IMU9_Gyro_Z,RU_IMU9_Magn_X,RU_IMU9_Magn_Y,RU_IMU9_Magn_Z
3268,1720095484.0850427,9.605133056640623,-0.509689450263977,2.8475606441497803,2.5899999141693115,5.389999866485596,-1.0499999523162842,169.91357421875,-225.11045837402344,163.2080841064453,9.837244987487791,-2.9743847846984863,0.8303391337394714,17.639999389648438,-13.510000228881836,-41.29999923706055,58.35000228881836,28.350000381469727,-24.900001525878903,9.0978364944458,3.68029260635376,2.1871180534362797,-2.6600000858306885,0.699999988079071,-1.6100000143051147,29.51150894165039,-151.5204620361328,-100.23420715332033,4.477130889892578,6.216775417327881,6.156952381134033,0.6299999952316284,-0.5600000023841858,0.9800000190734864,59.92646408081055,-151.50209045410156,120.63844299316406,9.770243644714355,-1.6295703649520874,-0.205790102481842,-3.5,11.899999618530272,-8.75,158.1751708984375,-106.21536254882812,-185.58773803710935
3269,1720095484.110684,9.01887035369873,-0.4379021823406219,3.139495372772217,0.699999988079071,6.650000095367432,-1.1200000047683716,171.42178344726562,-222.98390197753903,163.15438842773438,10.110036849975586,-2.945669889450073,0.8016242384910583,14.84000015258789,-13.440000534057615,-38.220001220703125,56.85000228881836,28.500001907348636,-25.950000762939453,9.002120018005371,3.596540927886963,2.134474039077759,-4.760000228881836,0.3499999940395355,-3.289999961853028,29.842138290405277,-149.44894409179688,-99.58883666992188,4.513024806976318,6.3196702003479,6.121058940887451,1.6100000143051147,-0.4900000095367431,0.5600000023841858,59.92646408081055,-151.50209045410156,120.63844299316406,9.935354232788086,-1.6870001554489136,-0.1411815732717514,-3.430000066757202,11.40999984741211,-7.070000171661377,160.521240234375,-110.34747314453124,-187.31723022460935
3270,1720095484.136325,8.832223892211914,-0.6125844717025757,3.35964298248291,1.8899999856948853,1.5399999618530271,-1.2599999904632568,169.21957397460938,-220.22042846679688,163.37864685058594,9.90424633026123,-2.837989091873169,0.5503688454627991,8.609999656677246,-10.359999656677246,-33.18000030517578,55.80000305175781,27.600000381469727,-25.05000114440918,9.109801292419434,3.4936459064483643,2.0339717864990234,-5.670000076293945,-0.2100000083446502,-5.320000171661377,27.528173446655277,-145.86961364746094,-99.2192153930664,4.589597702026367,6.3412065505981445,6.077986717224121,2.1700000762939453,-0.2800000011920929,0.0700000002980232,59.92646408081055,-151.50209045410156,120.63844299316406,9.40173625946045,-3.35964298248291,2.402479648590088,1.3300000429153442,0.9100000262260436,9.65999984741211,163.3648223876953,-100.77146911621094,-187.8817596435547
3271,1720095547.1556609,,,,,,,,,,5.429508686065674,-5.068179130554199,7.018399238586426,0.0,-2.799999952316284,-0.4900000095367431,47.10000228881836,14.250000953674316,-28.80000114440918,9.128944396972656,3.500824451446533,2.024400234222412,-6.300000190734863,-0.2100000083446502,-7.699999809265137,28.454334259033203,-148.42904663085938,-100.52023315429688,4.541739463806152,6.527853488922119,6.085165500640869,1.75,-0.4200000166893005,-0.0700000002980232,59.92646408081055,-151.50209045410156,120.63844299316406,9.12415885925293,-3.3046059608459477,2.3450498580932617,6.230000019073486,0.6299999952316284,11.550000190734863,162.26556396484375,-101.92911529541016,-189.48146057128903
3272,1720095547.1813018,8.2124605178833,-0.509689450263977,3.6300415992736816,-0.8400000333786011,-3.009999990463257,-1.680000066757202,167.94393920898438,-219.73651123046875,163.4729766845703,5.4869384765625,-5.0418572425842285,6.9609694480896,0.5600000023841858,-2.799999952316284,-0.6299999952316284,47.55000305175781,15.000000953674316,-30.600000381469727,8.944690704345703,3.4242515563964844,1.974149227142334,-7.769999980926514,-0.0700000002980232,-9.65999984741211,27.519533157348636,-149.35108947753906,-102.2194595336914,4.5704545974731445,6.408207893371582,6.063629150390625,0.6299999952316284,-0.6299999952316284,0.1400000005960464,59.92646408081055,-151.50209045410156,120.63844299316406,8.94229793548584,-3.239997625350952,2.2995846271514893,8.119999885559082,-0.4900000095367431,11.6899995803833,159.49510192871094,-99.60848236083984,-190.0328369140625
3273,1720095547.206943,8.547467231750488,-0.6436922550201416,3.81908130645752,1.4700000286102295,-11.480000495910645,-2.0999999046325684,170.41336059570312,-222.80230712890625,163.89427185058594,5.45104455947876,-5.221325397491455,7.0830078125,2.1700000762939453,-3.150000095367432,-0.6299999952316284,48.0,14.850000381469728,-30.150001525878903,8.552253723144531,3.280677080154419,2.108151912689209,-8.119999885559082,0.0700000002980232,-9.239999771118164,28.788354873657227,-147.67694091796875,-99.40784454345705,4.503453254699707,6.45845890045166,6.080379486083984,0.1400000005960464,-0.7699999809265137,0.7699999809265137,59.92646408081055,-151.50209045410156,120.63844299316406,8.760436058044434,-3.2567479610443115,2.3067634105682373,7.490000247955322,-1.8200000524520876,9.3100004196167,162.0189666748047,-100.02253723144533,-188.7212829589844
3274,1720095547.232584,8.820259094238281,-0.727444052696228,3.912404775619507,1.8899999856948853,-12.8100004196167,-2.799999952316284,170.52816772460938,-220.69741821289065,164.26663208007812,5.525224685668945,-5.252433300018311,6.853288650512695,4.269999980926514,-2.799999952316284,-0.7699999809265137,47.85000228881836,15.450000762939451,-31.650001525878903,8.289033889770508,3.1993181705474854,2.220618724822998,-5.740000247955322,0.1400000005960464,-6.440000057220459,28.064228057861328,-148.91317749023438,-102.1454849243164,4.484309673309326,6.532639026641846,6.051664352416992,-0.699999988079071,-1.190000057220459,1.3300000429153442,59.92646408081055,-151.50209045410156,120.63844299316406,8.717364311218262,-3.364428758621216,2.368978977203369,6.579999923706055,-2.5199999809265137,4.550000190734863,162.11996459960938,-102.1607666015625,-188.82061767578125
3275,1720095547.216092,9.37541389465332,-0.6963362693786621,3.697042942047119,3.920000076293945,-15.399999618530272,-3.289999961853028,171.9150848388672,-222.75784301757807,166.69580078125,5.302684307098389,-4.993999004364014,6.927468776702881,6.019999980926514,-2.799999952316284,-0.7699999809265137,46.5,14.850000381469728,-28.500001907348636,8.231603622436523,3.1706032752990723,2.227797508239746,-1.4700000286102295,0.0,-1.8200000524520876,29.101783752441406,-148.52908325195312,-99.70118713378906,4.498667240142822,6.331634998321533,6.133023262023926,-0.7699999809265137,-1.680000066757202,1.9600000381469729,59.92646408081055,-151.50209045410156,120.63844299316406,8.729329109191895,-3.464931011199951,2.373764753341675,5.25,-2.5199999809265137,-1.1200000047683716,161.43309020996094,-103.66893768310548,-191.6067047119141
3276,1720095547.2417328,9.856388092041016,-0.7633376717567444,3.838224649429321,4.480000019073486,-11.829999923706056,-3.289999961853028,168.58535766601562,-221.157958984375,164.47837829589844,5.312255859375,-4.82649564743042,7.1500091552734375,5.809999942779541,-4.199999809265137,-0.9100000262260436,46.35000228881836,16.5,-31.05000114440918,8.389535903930664,3.330928087234497,2.2469406127929688,3.640000104904175,-0.4900000095367431,3.640000104904175,31.237293243408203,-147.82699584960938,-99.17047882080078,4.524989128112793,6.427350997924805,6.135416507720947,-0.2100000083446502,-1.8899999856948853,2.380000114440918,59.92646408081055,-151.50209045410156,120.63844299316406,8.975798606872559,-3.378786325454712,2.395301103591919,2.6600000858306885,-1.9600000381469729,-6.159999847412109,161.67124938964844,-100.49774169921876,-189.08355712890625
3277,1720095547.267374,9.944926261901855,-0.6125844717025757,3.618077039718628,5.389999866485596,-5.809999942779541,-2.5899999141693115,172.0618896484375,-225.72579956054688,164.48648071289062,5.396007537841797,-4.649420261383057,7.030364036560059,3.569999933242798,-4.480000019073486,-2.0299999713897705,48.0,13.950000762939451,-29.850000381469727,8.638398170471191,3.582183361053467,2.2852272987365723,8.399999618530273,-1.3300000429153442,8.609999656677246,29.748802185058597,-148.90902709960938,-100.0532455444336,4.575240135192871,6.465637683868408,6.121058940887451,-0.5600000023841858,-2.1700000762939453,2.940000057220459,59.92646408081055,-151.50209045410156,120.63844299316406,9.262947082519531,-3.441001892089844,2.491017341613769,0.2100000083446502,-1.0499999523162842,-8.890000343322754,159.9092254638672,-98.35872650146484,-190.37481689453125
3278,1720095547.327069,9.894675254821776,-0.540797233581543,3.42903733253479,5.599999904632568,-1.6100000143051147,-1.6100000143051147,169.97097778320312,-224.0580139160156,163.39427185058594,,,,,,,,,,9.100229263305664,3.893261432647705,2.256512403488159,11.130000114440918,-2.6600000858306885,11.829999923706056,28.66248321533203,-146.8640899658203,-99.6834716796875,4.625491142272949,6.491959571838379,5.958341121673584,-1.4700000286102295,-2.240000009536743,3.0799999237060547,59.92646408081055,-151.50209045410156,120.63844299316406,9.320377349853516,-3.450573444366455,2.5245180130004883,-1.8200000524520876,-0.699999988079071,-9.239999771118164,161.38816833496094,-101.79869079589844,-190.9945068359375
3279,1720095547.293015,9.7391357421875,-0.4235447347164154,3.175389051437378,5.179999828338623,0.7699999809265137,-0.7699999809265137,169.39418029785156,-223.94309997558597,164.68017578125,5.374471664428711,-5.2093610763549805,6.807823657989502,1.5399999618530271,-5.389999866485596,-2.0999999046325684,46.20000076293945,15.600000381469728,-29.55000114440918,9.301233291625977,4.178017616271973,2.2158329486846924,10.640000343322754,-3.220000028610229,12.31999969482422,28.28518486022949,-148.66566467285156,-100.56104278564452,4.618312835693359,6.331634998321533,5.795623302459717,-0.6299999952316284,-0.9800000190734864,2.1700000762939453,59.92646408081055,-151.50209045410156,120.63844299316406,9.31319808959961,-3.484074115753174,2.598698139190674,-4.059999942779541,-0.9800000190734864,-7.28000020980835,159.33197021484375,-98.52368927001952,-190.25999450683597
3280,1720095564.7366,9.459165573120115,-0.3780794739723205,3.0892443656921387,4.480000019073486,1.4700000286102295,-0.4200000166893005,169.16424560546875,-223.9127197265625,163.98617553710938,5.202182292938232,-5.003571033477783,6.896361351013184,2.380000114440918,-5.599999904632568,-3.849999904632568,47.85000228881836,15.750000953674316,-31.500001907348636,9.334734916687012,4.295269966125488,2.275655508041382,8.260000228881836,-3.289999961853028,10.359999656677246,29.17278289794922,-152.2735595703125,-101.4869155883789,4.572847366333008,6.298134326934815,5.709478855133057,0.8400000333786011,0.5600000023841858,0.8400000333786011,59.92646408081055,-151.50209045410156,120.63844299316406,9.258161544799805,-3.563040256500244,2.555625915527344,-6.300000190734863,-0.9100000262260436,-3.990000009536743,162.00779724121094,-101.62481689453124,-189.84634399414065
3281,1720095564.737126,9.301233291625977,-0.3613291084766388,2.9672060012817383,4.340000152587891,1.3300000429153442,-0.5600000023841858,170.62017822265625,-222.5577545166016,165.05772399902344,5.419936656951904,-5.0418572425842285,6.77910852432251,2.799999952316284,-5.740000247955322,-4.619999885559082,47.25,15.90000057220459,-30.150001525878903,9.284482955932615,4.285698413848877,2.251726627349853,5.179999828338623,-3.009999990463257,6.720000267028809,30.0001163482666,-150.81460571289062,-100.67308807373048,4.630277156829834,6.310098648071289,5.613762378692627,1.399999976158142,2.0999999046325684,-0.699999988079071,59.92646408081055,-151.50209045410156,120.63844299316406,9.250982284545898,-3.577397584915161,2.5747690200805664,-6.579999923706055,-0.1400000005960464,-0.7699999809265137,160.7523193359375,-99.81649780273438,-189.5173797607422
3282,1720095564.7627668,9.191160202026367,-0.3709007501602173,2.907383441925049,3.990000009536743,0.4200000166893005,-0.8400000333786011,167.76834106445312,-221.57440185546875,162.44741821289062,5.436686992645264,-4.850424766540527,6.654677391052246,2.5899999141693115,-4.409999847412109,-4.690000057220459,46.5,15.300000190734863,-30.450000762939453,9.12415885925293,4.127766609191895,2.225404500961304,3.3600001335144043,-1.680000066757202,2.870000123977661,29.40754508972168,-147.78292846679688,-99.4307861328125,4.5632758140563965,6.190453052520752,5.721443176269531,1.399999976158142,4.059999942779541,-2.0299999713897705,59.92646408081055,-151.50209045410156,120.63844299316406,,,,,,,,,
3283,1720095564.7371,9.140909194946287,-0.3493645787239074,2.881061315536499,2.7300000190734863,-1.9600000381469729,-1.0499999523162842,168.98873901367188,-221.2306060791016,164.1824188232422,5.39122200012207,-4.754708290100098,6.470423698425293,1.0499999523162842,-2.6600000858306885,-3.920000076293945,47.85000228881836,16.80000114440918,-29.400001525878903,8.920761108398438,4.0152997970581055,2.17036771774292,3.150000095367432,-0.0700000002980232,0.0700000002980232,27.10081672668457,-146.08181762695312,-100.79601287841795,4.577633380889893,6.331634998321533,5.955948352813721,2.240000009536743,5.460000038146973,-3.009999990463257,59.92646408081055,-151.50209045410156,120.63844299316406,9.157659530639648,-3.5510756969451904,2.536482572555542,-4.199999809265137,0.5600000023841858,1.0499999523162842,160.2008514404297,-97.61553955078124,-190.525390625
3284,1720095564.736852,9.21748161315918,-0.4163660109043121,3.034207344055176,2.450000047683716,-4.130000114440918,-1.2599999904632568,172.79928588867188,-225.0463409423828,165.30291748046875,5.424722671508789,-4.70445728302002,6.448887348175049,-0.8400000333786011,-0.4200000166893005,-3.0799999237060547,46.05000305175781,16.650001525878906,-30.000001907348636,8.83700942993164,3.833438873291016,2.163188934326172,1.8200000524520876,1.2599999904632568,-1.3300000429153442,28.21628761291504,-147.08023071289062,-101.82158660888672,4.546525478363037,6.489566802978516,6.168917179107666,2.5199999809265137,6.300000190734863,-3.640000104904175,59.92646408081055,-151.50209045410156,120.63844299316406,9.0978364944458,-3.450573444366455,2.5029819011688232,0.1400000005960464,1.0499999523162842,1.680000066757202,161.19163513183594,-101.48150634765624,-189.5351104736328
3285,1720095564.737253,9.133729934692385,-0.4115802049636841,3.1586387157440186,0.2100000083446502,-5.25,-1.5399999618530271,171.01588439941406,-221.0321044921875,165.3255157470703,5.367292881011963,-4.881532669067383,6.707321166992188,-1.2599999904632568,0.9800000190734864,-2.240000009536743,47.400001525878906,16.5,-31.650001525878903,8.803508758544922,3.5654330253601074,2.057900905609131,-1.0499999523162842,1.5399999618530271,-1.0499999523162842,26.60881805419922,-145.46826171875,-100.82413482666016,4.3311638832092285,6.563746929168701,6.401029109954834,2.380000114440918,6.300000190734863,-3.7100000381469727,59.92646408081055,-151.50209045410156,120.63844299316406,9.13133716583252,-3.2902486324310303,2.536482572555542,4.480000019073486,0.9800000190734864,1.3300000429153442,159.25442504882812,-100.9005126953125,-190.6808013916016
3286,1720095564.762894,9.440022468566896,-0.4737958014011383,3.079672813415528,-0.6299999952316284,-5.949999809265137,-1.8200000524520876,168.08689880371094,-222.1456756591797,163.4654998779297,5.419936656951904,-4.958105564117432,7.130866050720215,-1.190000057220459,1.8200000524520876,-1.8899999856948853,47.25,16.650001525878906,-30.600000381469727,8.841794967651367,3.3261423110961914,2.014828681945801,-4.409999847412109,1.2599999904632568,0.0,27.0387020111084,-147.13523864746094,-101.1225128173828,4.142123699188232,6.515888690948486,6.570925712585449,2.5199999809265137,5.039999961853027,-3.289999961853028,59.92646408081055,-151.50209045410156,120.63844299316406,9.191160202026367,-3.0509579181671143,2.481445789337158,7.420000076293945,1.0499999523162842,0.8400000333786011,163.47142028808594,-101.8681640625,-189.3385467529297
3287,1720095564.737227,9.143301963806152,-0.1770751923322677,3.0868513584136963,-1.75,-5.740000247955322,-2.0999999046325684,169.1621551513672,-221.2728576660156,163.19247436523438,5.178253173828125,-4.934176445007324,7.382121562957764,-1.680000066757202,1.8899999856948853,-1.6100000143051147,46.5,15.300000190734863,-29.250001907348636,8.978191375732422,3.153852939605713,2.014828681945801,-5.670000076293945,0.5600000023841858,1.5399999618530271,29.731714248657227,-147.31268310546875,-99.77014923095705,3.991370677947998,6.59724760055542,6.683392524719238,2.450000047683716,2.799999952316284,-2.309999942779541,59.92646408081055,-151.50209045410156,120.63844299316406,9.27969741821289,-2.809274196624756,2.433587551116944,8.1899995803833,1.1200000047683716,0.4900000095367431,162.4308624267578,-101.1337432861328,-187.23878479003903
3288,1720095564.7370248,9.74870777130127,-0.4977248907089233,2.8212387561798096,2.7300000190734863,-6.929999828338623,-2.0999999046325684,168.93736267089844,-220.96163940429688,163.8098907470703,5.025106906890869,-4.962891578674316,7.372550010681152,-1.75,0.7699999809265137,-1.75,48.150001525878906,13.950000762939451,-30.600000381469727,8.966226577758789,2.9983139038085938,1.9382555484771729,-4.829999923706055,0.0,3.640000104904175,29.19511985778809,-149.0690155029297,-99.23677825927734,4.012907028198242,6.482388019561768,6.551782131195068,1.8899999856948853,-0.3499999940395355,-0.6299999952316284,59.92646408081055,-151.50209045410156,120.63844299316406,9.174409866333008,-2.7422726154327397,2.4503378868103027,7.490000247955322,1.1200000047683716,-0.4200000166893005,161.4632110595703,-97.5427017211914,-188.69851684570312
3289,1720095564.737434,9.380199432373049,-0.4331163763999939,3.015064239501953,-2.0299999713897705,-5.670000076293945,-1.6100000143051147,168.80369567871094,-223.0704803466797,162.876220703125,4.972463130950928,-4.960498332977295,7.305548191070557,-1.1200000047683716,-1.3300000429153442,-2.1700000762939453,46.95000076293945,15.750000953674316,-30.450000762939453,9.059550285339355,3.007885456085205,1.9215052127838133,-1.9600000381469729,-0.5600000023841858,6.090000152587891,30.45958137512207,-151.1552276611328,-100.4561767578125,4.101444244384766,6.408207893371582,6.374707221984863,1.6100000143051147,-2.870000123977661,1.0499999523162842,59.92646408081055,-151.50209045410156,120.63844299316406,9.126551628112791,-2.68245005607605,2.368978977203369,5.599999904632568,0.6299999952316284,-1.8200000524520876,164.0721893310547,-101.69824981689452,-188.751708984375
3290,1720095564.7630749,9.648205757141112,-0.3302213251590729,2.8284173011779785,1.5399999618530271,-6.579999923706055,-1.1200000047683716,169.54920959472656,-223.7094573974609,164.3000030517578,5.068179130554199,-4.936569213867188,7.243332862854004,-0.4900000095367431,-3.569999933242798,-2.5199999809265137,47.400001525878906,15.450000762939451,-31.05000114440918,9.105015754699709,3.113173484802246,1.9262909889221191,2.0299999713897705,-0.5600000023841858,8.119999885559082,28.831090927124023,-151.4273681640625,-102.03555297851562,4.345520973205566,6.29334831237793,6.109094142913818,1.75,-4.480000019073486,1.8899999856948853,59.92646408081055,-151.50209045410156,120.63844299316406,9.133729934692385,-2.6680924892425537,2.380943536758423,3.289999961853028,-0.0700000002980232,-3.289999961853028,159.3919219970703,-99.35041809082033,-191.9489898681641
3291,1720095564.737331,9.55009651184082,-0.5384043455123901,2.955241441726685,2.0299999713897705,-5.880000114440918,-0.699999988079071,169.6126251220703,-221.33560180664065,164.29981994628906,5.218932628631592,-4.881532669067383,7.133258819580078,-0.2800000011920929,-4.96999979019165,-2.5199999809265137,47.400001525878906,14.850000381469728,-31.350000381469727,9.157659530639648,3.273498296737671,1.8592896461486816,5.670000076293945,-0.2100000083446502,9.170000076293944,29.6357421875,-149.41360473632812,-99.58119201660156,4.558489799499512,6.317277431488037,5.939198017120361,2.5899999141693115,-4.900000095367432,2.0299999713897705,59.92646408081055,-151.50209045410156,120.63844299316406,9.174409866333008,-2.7231295108795166,2.373764753341675,0.9800000190734864,-0.5600000023841858,-4.550000190734863,162.8149871826172,-101.490234375,-189.26715087890625
3292,1720095564.737151,9.54052448272705,-0.368507832288742,2.818845748901367,4.480000019073486,-6.440000057220459,-0.2800000011920929,170.6412353515625,-220.1928253173828,163.79457092285156,5.293112754821777,-4.917426109313965,7.027971267700195,-0.4200000166893005,-5.949999809265137,-2.380000114440918,46.80000305175781,15.750000953674316,-31.500001907348636,9.109801292419434,3.527146577835083,1.90954065322876,7.699999809265137,0.2100000083446502,8.819999694824219,30.161596298217773,-148.9796905517578,-100.06853485107422,4.692492961883545,6.355564117431641,5.788444519042969,3.3600001335144043,-4.269999980926514,1.680000066757202,59.92646408081055,-151.50209045410156,120.63844299316406,9.205517768859863,-2.86431097984314,2.4000868797302246,-0.699999988079071,-0.5600000023841858,-5.110000133514404,159.38160705566406,-100.3929443359375,-190.73187255859372
3293,1720095564.737485,9.684099197387695,-0.4785816073417663,3.153852939605713,3.430000066757202,-6.720000267028809,-0.1400000005960464,168.66249084472656,-219.0610198974609,163.72808837890625,5.427115440368652,-4.941355228424072,6.855681896209717,-0.4900000095367431,-6.579999923706055,-1.75,46.95000076293945,15.15000057220459,-31.500001907348636,9.105015754699709,3.704221725463867,1.9215052127838133,7.840000152587891,-0.2800000011920929,7.490000247955322,30.16673851013184,-148.6988067626953,-98.75711059570312,4.845638751983643,6.468030452728272,5.671192169189453,4.269999980926514,-3.009999990463257,1.2599999904632568,59.92646408081055,-151.50209045410156,120.63844299316406,9.152873039245604,-2.928919553756714,2.435980319976806,-2.380000114440918,-0.2100000083446502,-4.550000190734863,160.76614379882812,-95.57340240478516,-189.04568481445312
3294,1720095564.763126,9.727170944213867,-0.3445787727832794,2.945669889450073,3.430000066757202,-2.450000047683716,-0.1400000005960464,171.10232543945312,-223.45315551757807,163.63409423828125,5.594619274139404,-4.970069885253906,6.688178062438965,-0.4200000166893005,-6.720000267028809,-1.2599999904632568,48.900001525878906,16.650001525878906,-28.950000762939453,9.116979598999023,3.7903664112091056,1.907147765159607,4.96999979019165,-0.9100000262260436,5.460000038146973,27.51261329650879,-151.71302795410156,-100.53531646728516,4.888711452484131,6.472816467285156,5.613762378692627,5.53000020980835,-1.0499999523162842,0.0700000002980232,59.92646408081055,-151.50209045410156,120.63844299316406,9.248589515686035,-3.0389933586120605,2.4503378868103027,-3.7100000381469727,-0.1400000005960464,-3.009999990463257,159.66217041015625,-96.73202514648438,-190.7857208251953
3295,1720095564.73746,9.535738945007324,-0.3302213251590729,2.907383441925049,2.380000114440918,-0.3499999940395355,0.0700000002980232,168.1409149169922,-219.77381896972656,163.18466186523438,5.654441833496094,-4.934176445007324,6.635534286499023,-0.3499999940395355,-6.300000190734863,-0.7699999809265137,47.10000228881836,16.350000381469727,-30.150001525878903,9.076300621032717,3.773616075515747,2.0291860103607178,0.9800000190734864,-1.1200000047683716,3.150000095367432,30.07768440246582,-148.43777465820312,-100.25228118896484,4.807352542877197,6.659463405609131,5.585047721862793,6.789999961853027,1.1200000047683716,-1.4700000286102295,59.92646408081055,-151.50209045410156,120.63844299316406,9.31319808959961,-3.05574369430542,2.500588893890381,-4.409999847412109,0.0,-1.4700000286102295,159.22669982910156,-96.10658264160156,-189.1298828125
3296,1720095564.737278,,,,,,,,,,5.745372295379639,-4.926997661590576,6.594854831695557,-0.5600000023841858,-5.599999904632568,-0.3499999940395355,46.80000305175781,14.550000190734863,-29.55000114440918,9.057157516479492,3.747294187545776,2.115330696105957,-1.399999976158142,-0.9800000190734864,1.0499999523162842,30.496828079223636,-151.4271697998047,-100.504638671875,4.6757426261901855,6.798252105712891,5.628119945526123,6.579999923706055,2.7300000190734863,-2.5899999141693115,59.92646408081055,-151.50209045410156,120.63844299316406,9.298840522766112,-3.141888380050659,2.5532329082489014,-3.920000076293945,-0.0700000002980232,-0.1400000005960464,162.939208984375,-99.38336944580078,-188.6141357421875
3297,1720095564.762919,9.47113037109375,-0.3015064299106598,2.9983139038085938,1.8200000524520876,-1.8200000524520876,0.1400000005960464,168.38070678710938,-219.5223388671875,165.33042907714844,5.716657638549805,-4.852817535400391,6.64031982421875,-1.0499999523162842,-4.199999809265137,-0.0700000002980232,47.10000228881836,17.100000381469727,-31.200000762939453,9.174409866333008,3.675506830215454,2.079437017440796,-2.240000009536743,-0.1400000005960464,-0.5600000023841858,29.40579414367676,-149.38323974609375,-100.2751922607422,4.529775142669678,6.826966762542725,5.733407974243164,4.199999809265137,3.430000066757202,-3.0799999237060547,59.92646408081055,-151.50209045410156,120.63844299316406,9.308412551879885,-3.1706032752990723,2.61305570602417,-2.870000123977661,0.0,0.7699999809265137,158.73251342773438,-97.37318420410156,-191.17352294921875
3298,1720095564.737656,9.437629699707031,-0.3709007501602173,2.979170560836792,1.680000066757202,-2.0299999713897705,0.2100000083446502,169.8643798828125,-222.9613037109375,164.85105895996094,5.740586280822754,-4.836067199707031,6.738429069519043,-2.0299999713897705,-2.6600000858306885,0.0700000002980232,47.25,15.15000057220459,-29.55000114440918,9.143301963806152,3.613291263580322,2.086615800857544,-3.0799999237060547,0.2800000011920929,-1.190000057220459,28.67354202270508,-149.78182983398438,-99.78019714355467,4.374236106872559,6.731250286102295,5.939198017120361,2.309999942779541,3.7799999713897705,-2.940000057220459,59.92646408081055,-151.50209045410156,120.63844299316406,9.21987533569336,-3.156245708465576,2.605876922607422,-1.9600000381469729,0.0700000002980232,1.8200000524520876,163.3536376953125,-102.37374877929688,-189.0068206787109
3299,1720095564.7376258,9.404129028320312,-0.3709007501602173,2.907383441925049,1.399999976158142,-1.8899999856948853,0.4200000166893005,169.0165557861328,-221.5045318603516,163.85330200195312,5.652049064636231,-5.027499675750732,6.846109867095947,-2.5199999809265137,-1.190000057220459,0.2100000083446502,48.150001525878906,15.90000057220459,-27.750001907348636,9.18398094177246,3.54150390625,2.065079689025879,-3.640000104904175,0.9100000262260436,-0.9100000262260436,29.74277687072754,-150.2304229736328,-99.86688232421876,4.2617692947387695,6.6786065101623535,6.144988059997559,2.1700000762939453,3.7799999713897705,-2.450000047683716,59.92646408081055,-151.50209045410156,120.63844299316406,9.243803977966309,-3.16821026802063,2.6298060417175293,-0.9100000262260436,0.0700000002980232,2.6600000858306885,163.9775390625,-102.47875213623048,-188.8894195556641
3300,1720095564.7373848,9.349091529846191,-0.4570454359054565,3.0054924488067627,0.7699999809265137,-2.940000057220459,0.7699999809265137,169.3317413330078,-220.7563934326172,164.4043731689453,5.496510028839111,-4.953319549560547,6.891575336456299,-1.680000066757202,-0.0700000002980232,-0.1400000005960464,46.650001525878906,16.200000762939453,-28.80000114440918,9.12415885925293,3.476895570755005,2.0626866817474365,-3.569999933242798,1.190000057220459,-0.4200000166893005,30.86941337585449,-149.6265869140625,-99.76739501953124,4.189981937408447,6.774322986602783,6.161738395690918,2.0299999713897705,3.3600001335144043,-1.6100000143051147,59.92646408081055,-151.50209045410156,120.63844299316406,9.20073127746582,-3.062922477722168,2.601091146469116,0.4900000095367431,-0.2800000011920929,2.940000057220459,157.6474151611328,-98.52784729003906,-192.35223388671875
3301,1720095564.7630258,9.406521797180176,-0.4857603311538696,2.9624202251434326,0.4900000095367431,-4.059999942779541,1.0499999523162842,168.57386779785156,-218.5200958251953,163.4040069580078,5.360114097595215,-4.8097453117370605,6.95379114151001,-1.190000057220459,0.4900000095367431,-0.4900000095367431,47.400001525878906,16.5,-30.150001525878903,9.109801292419434,3.362035751342773,2.0052568912506104,-3.7799999713897705,1.190000057220459,-0.1400000005960464,29.54843521118164,-147.55227661132812,-100.2319564819336,4.16605281829834,6.64031982421875,6.1378092765808105,1.8899999856948853,2.5199999809265137,-1.0499999523162842,59.92646408081055,-151.50209045410156,120.63844299316406,9.150480270385742,-3.007885456085205,2.5460541248321533,1.6100000143051147,-0.4900000095367431,2.7300000190734863,159.17784118652344,-97.71678161621094,-191.3776092529297
3302,1720095564.737834,9.39216423034668,-0.3661149442195892,2.993528127670288,3.289999961853028,-2.870000123977661,1.399999976158142,170.1311492919922,-223.5435028076172,164.3255157470703,5.369685649871826,-4.852817535400391,6.989684581756592,-1.399999976158142,0.4900000095367431,-1.0499999523162842,47.400001525878906,14.700000762939451,-28.80000114440918,9.08108615875244,3.3285350799560547,1.995685338973999,-4.409999847412109,1.399999976158142,-0.0700000002980232,30.09313201904297,-147.11436462402344,-100.1579818725586,4.189981937408447,6.712107181549072,6.082772254943848,1.5399999618530271,1.399999976158142,-0.3499999940395355,59.92646408081055,-151.50209045410156,120.63844299316406,9.138516426086426,-2.9839563369750977,2.476659774780273,2.1700000762939453,-0.3499999940395355,2.309999942779541,159.16590881347656,-95.839599609375,-189.7830810546875
3303,1720095564.737758,9.559667587280272,-0.4570454359054565,2.888240098953247,3.7799999713897705,-4.059999942779541,1.8200000524520876,170.4990234375,-221.7439117431641,164.92242431640625,5.34814977645874,-4.9078545570373535,7.027971267700195,-1.3300000429153442,0.2800000011920929,-1.680000066757202,47.10000228881836,15.90000057220459,-31.650001525878903,9.071514129638672,3.3069989681243896,1.9885066747665403,-4.690000057220459,1.3300000429153442,0.0700000002980232,28.055238723754883,-148.6352996826172,-101.25505065917967,4.242626190185547,6.602033615112305,6.1378092765808105,0.9800000190734864,0.0700000002980232,0.3499999940395355,59.92646408081055,-151.50209045410156,120.63844299316406,9.186373710632324,-2.902597427368164,2.373764753341675,2.5899999141693115,-0.5600000023841858,1.9600000381469729,159.60476684570312,-97.7844696044922,-190.97189331054688
3304,1720095564.737536,9.509416580200195,-0.3924369215965271,2.9695990085601807,3.990000009536743,-3.0799999237060547,1.75,170.71954345703125,-221.7762756347656,165.3357696533203,5.357721328735352,-5.063393592834473,7.059078693389893,-0.6299999952316284,-0.699999988079071,-1.8200000524520876,46.35000228881836,14.850000381469728,-31.200000762939453,9.03562068939209,3.251962184906006,2.0267932415008545,-4.130000114440918,1.2599999904632568,0.4900000095367431,30.01642799377441,-148.93145751953125,-98.2365951538086,4.328770637512207,6.714499950408936,5.963127136230469,0.4200000166893005,-0.9800000190734864,0.7699999809265137,59.92646408081055,-151.50209045410156,120.63844299316406,9.160052299499512,-2.8834543228149414,2.366586208343506,2.380000114440918,-0.9800000190734864,1.8899999856948853,160.2787322998047,-99.47885131835938,-190.15528869628903
3305,1720095564.763177,9.509416580200195,-0.4450809061527252,3.1514599323272705,3.569999933242798,-3.7799999713897705,1.680000066757202,170.84246826171875,-220.9898223876953,166.3154754638672,5.357721328735352,-5.010749340057373,6.968148231506348,0.1400000005960464,-1.2599999904632568,-2.0299999713897705,46.95000076293945,14.850000381469728,-31.05000114440918,9.066728591918944,3.338106870651245,2.038757801055908,-2.309999942779541,1.680000066757202,0.699999988079071,31.85341453552246,-150.85369873046875,-99.7111358642578,4.390986442565918,6.609211921691895,5.9200544357299805,0.1400000005960464,-1.6100000143051147,1.1200000047683716,59.92646408081055,-151.50209045410156,120.63844299316406,9.174409866333008,-2.91695499420166,2.4407663345336914,0.9800000190734864,-1.4700000286102295,1.8200000524520876,160.4698028564453,-96.31757354736328,-189.03543090820312
3306,1720095564.737908,9.504631042480469,-0.4546525478363037,3.0653152465820312,3.430000066757202,-2.5199999809265137,1.5399999618530271,168.8884735107422,-223.05262756347656,165.40216064453125,5.372078895568848,-4.926997661590576,6.929862022399902,0.2100000083446502,-2.240000009536743,-1.8899999856948853,47.10000228881836,16.350000381469727,-30.900001525878903,9.064335823059082,3.414679765701294,1.983720779418945,-0.5600000023841858,1.9600000381469729,0.8400000333786011,28.37337875366211,-149.4864501953125,-101.4080581665039,4.515417575836182,6.613997936248779,5.939198017120361,0.0,-2.1700000762939453,1.2599999904632568,59.92646408081055,-151.50209045410156,120.63844299316406,9.167230606079102,-2.9265265464782715,2.4216229915618896,-1.190000057220459,-1.8200000524520876,1.8200000524520876,160.96945190429688,-98.52943420410156,-189.5710601806641
3307,1720095564.7378588,9.440022468566896,-0.4714028835296631,3.110780477523804,2.799999952316284,-2.0999999046325684,1.75,167.7807159423828,-223.1717071533203,162.0240020751953,5.419936656951904,-4.950926780700684,6.817395210266113,-0.4900000095367431,-2.5199999809265137,-1.5399999618530271,47.10000228881836,16.350000381469727,-30.450000762939453,9.093050956726074,3.4601449966430664,2.024400234222412,-0.2100000083446502,1.9600000381469729,0.7699999809265137,31.290740966796875,-150.73580932617188,-98.00424194335938,4.527381896972656,6.633141040802002,5.912876129150391,0.2100000083446502,-2.1700000762939453,1.2599999904632568,59.92646408081055,-151.50209045410156,120.63844299316406,9.195945739746094,-3.000706672668457,2.467088222503662,-3.3600001335144043,-1.8200000524520876,1.8200000524520876,158.74050903320312,-103.2116241455078,-191.78797912597656
3308,1720095564.737681,9.473523139953612,-0.4522596299648285,3.1514599323272705,2.0299999713897705,-2.240000009536743,1.8200000524520876,172.0495147705078,-224.12847900390625,164.90989685058594,5.463009357452393,-5.017928123474121,6.771929740905762,-0.9800000190734864,-2.870000123977661,-1.1200000047683716,47.85000228881836,16.05000114440918,-30.000001907348636,9.016477584838867,3.503217458724976,2.0961875915527344,-0.3499999940395355,2.1700000762939453,0.2800000011920929,28.661941528320312,-151.66397094726562,-102.0763702392578,4.496274471282959,6.506317138671875,5.865017890930176,0.8400000333786011,-1.8200000524520876,1.0499999523162842,59.92646408081055,-151.50209045410156,120.63844299316406,9.258161544799805,-3.084458589553833,2.476659774780273,-4.340000152587891,-1.4700000286102295,1.8200000524520876,160.05906677246094,-98.88674926757812,-188.2264404296875
3309,1720095564.763322,9.547703742980955,-0.4115802049636841,3.09881591796875,1.75,-1.190000057220459,1.8200000524520876,169.5381317138672,-220.79171752929688,164.396728515625,5.463009357452393,-4.998785018920898,6.800644874572754,-0.9100000262260436,-3.009999990463257,-0.5600000023841858,48.150001525878906,15.750000953674316,-31.05000114440918,8.961441040039062,3.5606472492218018,2.14404559135437,0.1400000005960464,2.240000009536743,-0.1400000005960464,27.466835021972656,-150.40252685546875,-102.26530456542967,4.527381896972656,6.544603824615479,5.886553764343262,1.5399999618530271,-0.9800000190734864,0.699999988079071,59.92646408081055,-151.50209045410156,120.63844299316406,9.207910537719728,-3.2064969539642334,2.5245180130004883,-4.130000114440918,-1.75,1.8200000524520876,160.90777587890625,-99.30298614501952,-188.7264709472656
3310,1720095564.7380288,9.497451782226562,-0.4044014811515808,3.1706032752990723,1.399999976158142,-0.6299999952316284,1.8200000524520876,169.0795440673828,-219.89134216308597,166.52200317382812,5.484545230865479,-4.924604892730713,6.831752777099609,-0.9800000190734864,-2.6600000858306885,-0.2800000011920929,46.95000076293945,16.950000762939453,-29.100000381469727,9.009299278259276,3.606112480163574,2.141652822494507,1.0499999523162842,2.240000009536743,-0.0700000002980232,28.80512237548828,-145.03314208984375,-99.64022827148438,4.524989128112793,6.688178062438965,5.7860517501831055,2.0299999713897705,-0.2800000011920929,0.4900000095367431,59.92646408081055,-151.50209045410156,120.63844299316406,9.212696075439451,-3.2017109394073486,2.522125244140625,-2.7300000190734863,-1.9600000381469729,1.9600000381469729,163.23072814941406,-103.16018676757812,-189.9865264892578
3311,1720095564.738004,9.442415237426758,-0.4642241597175598,3.134709596633911,1.8200000524520876,0.5600000023841858,1.6100000143051147,170.8373260498047,-221.27069091796875,165.00404357910156,5.467794895172119,-4.955712795257568,6.829359531402588,-1.1200000047683716,-2.309999942779541,-0.1400000005960464,47.25,14.700000762939451,-30.750001907348636,9.014084815979004,3.639613151550293,2.156010150909424,0.9800000190734864,2.0999999046325684,0.0700000002980232,27.669841766357425,-149.11842346191406,-102.7399673461914,4.46995210647583,6.6714277267456055,5.814766883850098,1.75,0.4200000166893005,0.4200000166893005,59.92646408081055,-151.50209045410156,120.63844299316406,9.239018440246582,-3.187353610992432,2.51733922958374,-1.5399999618530271,-2.309999942779541,2.0999999046325684,157.23033142089844,-98.17830657958984,-191.30618286132807
3312,1720095564.737809,9.440022468566896,-0.4881532490253448,3.0940301418304443,2.309999942779541,1.1200000047683716,1.5399999618530271,168.89715576171875,-219.09039306640625,164.5624237060547,5.4869384765625,-4.874353885650635,6.850895881652832,-1.2599999904632568,-1.6100000143051147,-0.0700000002980232,48.0,15.300000190734863,-30.150001525878903,9.016477584838867,3.675506830215454,2.191903829574585,0.4900000095367431,2.0999999046325684,0.3499999940395355,30.39111328125,-149.2899169921875,-100.54562377929688,4.405344009399414,6.602033615112305,5.963127136230469,1.2599999904632568,0.699999988079071,0.4200000166893005,59.92646408081055,-151.50209045410156,120.63844299316406,9.243803977966309,-3.120352268218994,2.51733922958374,-0.9100000262260436,-1.8899999856948853,2.240000009536743,160.2799530029297,-102.6784439086914,-191.7037811279297
3313,1720095564.76345,9.416092872619627,-0.5144752264022827,3.015064239501953,2.0999999046325684,0.699999988079071,1.399999976158142,169.9653778076172,-225.09954833984372,164.75172424316406,5.4869384765625,-5.015535354614258,6.87482500076294,-1.4700000286102295,-1.190000057220459,-0.1400000005960464,46.95000076293945,16.5,-29.850000381469727,9.0284423828125,3.673113822937012,2.141652822494507,-0.6299999952316284,2.0299999713897705,0.6299999952316284,29.53516960144043,-146.99549865722656,-98.31075286865234,4.410129547119141,6.733643531799316,5.951162338256836,0.8400000333786011,0.4900000095367431,0.3499999940395355,59.92646408081055,-151.50209045410156,120.63844299316406,9.250982284545898,-3.103601694107056,2.486231565475464,-1.0499999523162842,-1.8200000524520876,2.5199999809265137,162.4335174560547,-98.49291229248048,-187.8921661376953
3314,1720095564.7382228,9.396949768066406,-0.5384043455123901,3.0246357917785645,1.75,-0.4200000166893005,1.4700000286102295,169.45587158203125,-223.1695251464844,163.83558654785156,5.443865776062012,-4.998785018920898,6.855681896209717,-0.9100000262260436,-0.699999988079071,-0.1400000005960464,47.55000305175781,18.450000762939453,-30.30000114440918,,,,,,,,,,4.369450092315674,6.666641712188721,5.97269868850708,1.4700000286102295,0.699999988079071,0.3499999940395355,59.92646408081055,-151.50209045410156,120.63844299316406,9.181588172912598,-3.0868513584136963,2.438373327255249,-1.4700000286102295,-1.8899999856948853,2.5899999141693115,161.96505737304688,-97.87439727783205,-187.21864318847656
3315,1720095564.7381258,9.442415237426758,-0.5455830693244934,3.027028799057007,1.5399999618530271,-0.3499999940395355,1.6100000143051147,169.82757568359375,-222.40948486328125,166.07061767578125,5.388829231262207,-4.950926780700684,6.865253448486328,-0.9800000190734864,-0.4200000166893005,-0.2100000083446502,46.650001525878906,15.300000190734863,-30.000001907348636,8.93990421295166,3.639613151550293,2.184725046157837,-1.9600000381469729,1.6100000143051147,0.4900000095367431,28.07364654541016,-148.9112091064453,-101.86482238769533,4.3239850997924805,6.652284622192383,5.9272332191467285,1.75,0.6299999952316284,0.4900000095367431,59.92646408081055,-151.50209045410156,120.63844299316406,9.20073127746582,-3.070101022720337,2.376157760620117,-2.309999942779541,-1.6100000143051147,2.240000009536743,161.10475158691406,-99.34030151367188,-189.0147705078125
3316,1720095564.737933,9.418486595153809,-0.5647262930870056,3.0102784633636475,1.399999976158142,0.0,1.75,169.18438720703125,-222.5883331298828,164.22080993652344,5.398400783538818,-4.936569213867188,6.85807466506958,-1.399999976158142,-0.5600000023841858,-0.5600000023841858,46.650001525878906,16.200000762939453,-30.30000114440918,8.9231538772583,3.5869691371917725,2.1751534938812256,-3.289999961853028,1.190000057220459,0.2800000011920929,26.941869735717773,-149.7958984375,-103.27574157714844,4.290484428405762,6.592461585998535,5.831517219543457,2.380000114440918,0.8400000333786011,0.4900000095367431,59.92646408081055,-151.50209045410156,120.63844299316406,9.205517768859863,-3.0509579181671143,2.380943536758423,-3.3600001335144043,-1.4700000286102295,1.75,163.56903076171875,-102.6869659423828,-189.9049072265625
3317,1720095564.738175,9.411307334899902,-0.5862624645233154,3.084458589553833,0.5600000023841858,-0.4900000095367431,1.75,171.8482666015625,-223.8122711181641,166.22897338867188,5.35532808303833,-4.917426109313965,6.913111686706543,-1.2599999904632568,-0.4900000095367431,-0.5600000023841858,46.05000305175781,16.350000381469727,-28.80000114440918,8.982976913452148,3.486467123031616,2.1871180534362797,-3.640000104904175,0.8400000333786011,0.2800000011920929,28.50442123413086,-149.5376434326172,-103.6609878540039,4.259376525878906,6.793466091156006,5.869803428649902,2.380000114440918,0.5600000023841858,0.7699999809265137,59.92646408081055,-151.50209045410156,120.63844299316406,9.203125,-3.120352268218994,2.3522286415100098,-3.990000009536743,-1.2599999904632568,1.3300000429153442,160.69448852539062,-101.14881134033205,-190.87466430664065
3318,1720095564.7382948,9.440022468566896,-0.5671192407608032,3.103601694107056,0.5600000023841858,-0.4200000166893005,1.5399999618530271,171.30784606933594,-224.529052734375,165.12423706054688,5.424722671508789,-5.003571033477783,6.937040328979492,-1.399999976158142,-0.7699999809265137,-0.4200000166893005,48.60000228881836,15.90000057220459,-29.850000381469727,9.006906509399414,3.436216115951538,2.1871180534362797,-3.0799999237060547,0.9100000262260436,0.5600000023841858,27.24159812927246,-150.3711700439453,-102.81897735595705,4.292877197265625,6.788680076599121,5.874589443206787,1.2599999904632568,-0.2100000083446502,1.680000066757202,59.92646408081055,-151.50209045410156,120.63844299316406,9.250982284545898,-3.153852939605713,2.4144442081451416,-3.640000104904175,-1.3300000429153442,1.1200000047683716,160.4838104248047,-100.8345947265625,-189.83624267578125
3319,1720095564.738246,9.394556999206545,-0.5934411883354187,3.036600351333618,0.4900000095367431,0.7699999809265137,1.2599999904632568,169.66226196289062,-223.20486450195312,163.82794189453125,5.410365104675293,-4.96528434753418,6.929862022399902,-1.4700000286102295,-1.0499999523162842,-0.2800000011920929,46.80000305175781,14.40000057220459,-30.30000114440918,9.033227920532228,3.3835721015930176,2.218225717544556,-2.380000114440918,1.0499999523162842,0.9800000190734864,27.82058334350586,-148.60589599609375,-102.08938598632812,4.249804973602295,6.7838945388793945,5.89373254776001,0.0,-1.0499999523162842,2.0299999713897705,59.92646408081055,-151.50209045410156,120.63844299316406,9.265339851379396,-3.1921393871307373,2.376157760620117,-3.009999990463257,-1.190000057220459,1.1200000047683716,159.40133666992188,-99.3484344482422,-191.6683349609375
3320,1720095564.738052,9.396949768066406,-0.569512128829956,2.950455665588379,1.1200000047683716,0.6299999952316284,0.9100000262260436,169.08206176757812,-221.77052307128903,164.64683532714844,5.376864433288574,-4.955712795257568,6.891575336456299,-1.6100000143051147,-1.399999976158142,-0.2100000083446502,47.10000228881836,17.100000381469727,-28.950000762939453,8.911190032958984,3.3835721015930176,2.156010150909424,-1.8200000524520876,1.1200000047683716,1.2599999904632568,28.88728904724121,-147.17532348632812,-100.30088806152344,4.290484428405762,6.788680076599121,5.85066032409668,-0.6299999952316284,-1.5399999618530271,2.240000009536743,59.92646408081055,-151.50209045410156,120.63844299316406,9.262947082519531,-3.1849606037139893,2.4000868797302246,-2.450000047683716,-1.190000057220459,1.3300000429153442,161.3568572998047,-104.725341796875,-192.3542022705078
3321,1720095564.7382689,,,,,,,,,,,,,,,,,,,8.937511444091797,3.3955366611480717,2.2158329486846924,-1.2599999904632568,1.2599999904632568,1.399999976158142,30.061803817749023,-150.04103088378906,-101.5176773071289,4.28809118270874,6.743215084075928,5.843481540679932,-1.3300000429153442,-2.0299999713897705,2.5899999141693115,59.92646408081055,-151.50209045410156,120.63844299316406,9.23662567138672,-3.137102603912353,2.354621648788452,-2.380000114440918,-0.9100000262260436,1.4700000286102295,159.29298400878906,-99.85203552246094,-191.0559539794922
3322,1720095564.7636929,9.451987266540527,-0.5671192407608032,3.015064239501953,1.2599999904632568,-0.9800000190734864,0.4900000095367431,169.30380249023438,-225.00247192382807,163.51168823242188,5.3649001121521,-5.005963802337647,6.841324329376221,-1.75,-1.8200000524520876,-0.0700000002980232,46.80000305175781,16.350000381469727,-29.400001525878903,8.904010772705078,3.4314301013946533,2.234976053237915,-0.5600000023841858,1.190000057220459,1.3300000429153442,29.994091033935547,-152.13600158691406,-100.48673248291016,4.338342189788818,6.728857517242432,5.874589443206787,-2.0299999713897705,-2.240000009536743,3.0799999237060547,59.92646408081055,-151.50209045410156,120.63844299316406,9.327555656433104,-3.1490671634674072,2.380943536758423,-2.309999942779541,-0.5600000023841858,1.5399999618530271,160.25900268554688,-100.52335357666016,-189.2188262939453
3323,1720095564.738344,9.459165573120115,-0.5838695764541626,3.043779134750366,1.399999976158142,-0.7699999809265137,0.2100000083446502,171.0582733154297,-221.02317810058597,166.58848571777344,5.40797233581543,-4.984427452087402,6.855681896209717,-2.0299999713897705,-1.680000066757202,0.0,47.400001525878906,15.600000381469728,-30.000001907348636,8.951869010925293,3.49843168258667,2.1799392700195312,0.0700000002980232,0.8400000333786011,1.4700000286102295,27.464305877685547,-148.5233612060547,-100.39012908935548,4.419701099395752,6.64031982421875,5.881768226623535,-2.450000047683716,-2.6600000858306885,3.009999990463257,59.92646408081055,-151.50209045410156,120.63844299316406,9.308412551879885,-3.156245708465576,2.3522286415100098,-2.309999942779541,-0.3499999940395355,1.5399999618530271,160.6868133544922,-99.55050659179688,-190.3109130859375
3324,1720095564.7381988,9.435236930847168,-0.6389064788818359,3.046171903610229,1.399999976158142,0.1400000005960464,0.2100000083446502,168.94369506835938,-223.88037109375,163.5728302001953,5.417543888092041,-4.972463130950928,6.838931560516357,-2.240000009536743,-1.4700000286102295,0.1400000005960464,46.35000228881836,15.750000953674316,-28.950000762939453,9.023656845092772,3.4888598918914795,2.242154836654663,-0.0700000002980232,0.7699999809265137,1.680000066757202,30.496397018432617,-151.70703125,-101.6757354736328,4.481916904449463,6.647498607635498,5.867410659790039,-2.240000009536743,-2.450000047683716,2.5899999141693115,59.92646408081055,-151.50209045410156,120.63844299316406,9.265339851379396,-3.1083877086639404,2.4072654247283936,-2.240000009536743,-0.4200000166893005,1.3300000429153442,161.10003662109375,-99.34129333496094,-189.1551055908203
3325,1720095564.738149,9.45438003540039,-0.6293348073959351,3.000706672668457,1.2599999904632568,0.0700000002980232,0.4200000166893005,170.5080108642578,-222.02178955078125,164.03199768066406,5.3864359855651855,-5.020321369171143,6.882003784179688,-2.0299999713897705,-1.2599999904632568,0.0,47.70000076293945,16.5,-29.250001907348636,9.076300621032717,3.4936459064483643,2.263690948486328,-0.4900000095367431,0.6299999952316284,1.680000066757202,29.775421142578125,-145.9833526611328,-98.83386993408205,4.503453254699707,6.594854831695557,5.867410659790039,-2.0999999046325684,-1.9600000381469729,2.309999942779541,59.92646408081055,-151.50209045410156,120.63844299316406,9.253376007080078,-3.105994701385498,2.3570144176483154,-2.940000057220459,-0.2800000011920929,1.399999976158142,161.14791870117188,-102.81084442138672,-190.4713897705078
3326,1720095564.76379,9.38259220123291,-0.6771929860115051,3.0940301418304443,1.190000057220459,-0.9800000190734864,0.5600000023841858,170.59278869628906,-222.0039520263672,166.5579376220703,5.396007537841797,-5.032285690307617,6.87482500076294,-1.75,-1.1200000047683716,-0.1400000005960464,46.05000305175781,14.40000057220459,-30.000001907348636,9.01169204711914,3.491252899169922,2.2732627391815186,-1.3300000429153442,0.8400000333786011,1.399999976158142,29.686260223388672,-150.2423095703125,-101.55084991455078,4.510631561279297,6.568532943725586,5.841088771820068,-1.4700000286102295,-1.4700000286102295,1.8200000524520876,59.92646408081055,-151.50209045410156,120.63844299316406,9.246196746826172,-3.1251380443573,2.3354783058166504,-3.0799999237060547,-0.2100000083446502,1.6100000143051147,160.2787322998047,-99.47885131835938,-190.15528869628903
3327,1720095564.7384818,9.404129028320312,-0.6149773597717285,3.0868513584136963,1.399999976158142,-1.0499999523162842,0.6299999952316284,169.18099975585938,-221.26890563964844,163.7537841796875,5.439080238342285,-5.046643257141113,6.915504455566406,-1.680000066757202,-1.0499999523162842,-0.1400000005960464,48.75000381469727,14.850000381469728,-30.900001525878903,8.966226577758789,3.421858549118042,2.218225717544556,-1.75,0.9100000262260436,1.1200000047683716,29.763715744018555,-152.385498046875,-102.35183715820312,4.453201770782471,6.570925712585449,5.83390998840332,-1.0499999523162842,-1.1200000047683716,1.75,59.92646408081055,-151.50209045410156,120.63844299316406,9.224660873413086,-3.153852939605713,2.347442865371704,-2.799999952316284,-0.4200000166893005,1.6100000143051147,161.0516357421875,-100.67162322998048,-190.23171997070312
3328,1720095564.7384138,9.406521797180176,-0.5934411883354187,3.0605294704437256,1.3300000429153442,-0.9100000262260436,0.699999988079071,170.57647705078125,-223.8871154785156,164.12142944335938,5.357721328735352,-5.027499675750732,6.898754119873047,-0.9800000190734864,-1.0499999523162842,-0.3499999940395355,46.80000305175781,16.05000114440918,-30.750001907348636,8.985369682312012,3.4122869968414307,2.2230117321014404,-1.1200000047683716,0.8400000333786011,1.1200000047683716,30.906232833862305,-150.1783905029297,-100.98694610595705,4.3957719802856445,6.599640369415283,5.860231876373291,-1.399999976158142,-1.0499999523162842,2.0299999713897705,59.92646408081055,-151.50209045410156,120.63844299316406,9.250982284545898,-3.1777820587158203,2.3235137462615967,-1.680000066757202,-0.4900000095367431,1.3300000429153442,163.0175323486328,-100.96680450439452,-187.07293701171875
3329,1720095564.73832,9.509416580200195,-0.600619912147522,3.1012089252471924,1.5399999618530271,-0.9100000262260436,0.4200000166893005,168.81663513183594,-219.867919921875,164.84568786621094,5.384043216705322,-5.022714138031006,6.862860202789307,-0.9100000262260436,-0.9800000190734864,-0.2100000083446502,47.400001525878906,15.750000953674316,-30.150001525878903,9.01887035369873,3.421858549118042,2.172760486602783,0.0700000002980232,0.8400000333786011,1.0499999523162842,29.17366981506348,-151.23301696777344,-102.98470306396484,4.4795241355896,6.609211921691895,5.948769569396973,-1.4700000286102295,-1.1200000047683716,2.1700000762939453,59.92646408081055,-151.50209045410156,120.63844299316406,9.334734916687012,-3.1012089252471924,2.3785505294799805,-0.9100000262260436,0.5600000023841858,1.399999976158142,160.70433044433594,-100.86695098876952,-189.4228973388672
3330,1720095564.7639608,9.526166915893556,-0.619763195514679,3.062922477722168,0.9800000190734864,-0.6299999952316284,0.1400000005960464,171.56736755371094,-223.2330474853516,166.33352661132812,5.352935314178467,-5.068179130554199,6.889182567596436,-1.2599999904632568,-0.9800000190734864,-0.2100000083446502,47.400001525878906,16.5,-30.600000381469727,9.009299278259276,3.441001892089844,2.2110471725463867,-0.0700000002980232,0.7699999809265137,0.9800000190734864,28.790884017944336,-149.55612182617188,-101.28302001953124,4.527381896972656,6.578104496002197,5.886553764343262,-0.9800000190734864,-1.0499999523162842,2.0999999046325684,59.92646408081055,-151.50209045410156,120.63844299316406,9.341913223266602,-3.0030996799468994,2.529303789138794,-2.799999952316284,2.0999999046325684,1.6100000143051147,157.13821411132812,-100.83797454833984,-193.31907653808597
3331,1720095564.7385778,9.485487937927246,-0.5455830693244934,3.1729960441589355,1.1200000047683716,0.0,-0.2100000083446502,170.2814483642578,-223.31085205078125,163.8050079345703,5.329006195068359,-5.099287033081055,6.882003784179688,-1.3300000429153442,-1.399999976158142,-0.2100000083446502,48.0,17.25,-30.000001907348636,9.026049613952637,3.476895570755005,2.2086541652679443,-0.8400000333786011,0.8400000333786011,0.9100000262260436,29.474262237548828,-151.24851989746094,-100.1857452392578,4.546525478363037,6.647498607635498,5.853053092956543,-0.4900000095367431,-1.0499999523162842,1.75,59.92646408081055,-151.50209045410156,120.63844299316406,9.310805320739746,-2.945669889450073,2.5269110202789307,-7.28000020980835,3.7100000381469727,1.75,158.61891174316406,-102.67765045166016,-193.0943756103516
3332,1720095564.7384598,9.411307334899902,-0.5838695764541626,3.1514599323272705,1.190000057220459,1.5399999618530271,-0.4200000166893005,171.3682098388672,-225.07591247558597,164.6063232421875,5.396007537841797,-5.159110069274902,6.867646217346191,-0.8400000333786011,-1.680000066757202,-0.4900000095367431,47.400001525878906,15.000000953674316,-30.30000114440918,8.9231538772583,3.476895570755005,2.2230117321014404,-1.3300000429153442,0.6299999952316284,0.9100000262260436,28.84140014648437,-150.38482666015625,-103.25267791748048,4.472345352172852,6.64031982421875,5.857839107513428,-0.2800000011920929,-1.2599999904632568,1.6100000143051147,59.92646408081055,-151.50209045410156,120.63844299316406,9.30601978302002,-3.141888380050659,2.416837215423584,-9.800000190734863,4.199999809265137,1.680000066757202,161.22723388671875,-98.83373260498048,-189.20616149902344
3333,1720095564.738437,9.356270790100098,-0.6389064788818359,3.1490671634674072,1.9600000381469729,1.6100000143051147,-0.3499999940395355,169.95947265625,-221.90093994140625,166.15988159179688,5.374471664428711,-5.116037368774414,6.853288650512695,-0.2100000083446502,-1.5399999618530271,-0.4900000095367431,46.5,16.5,-30.450000762939453,8.973404884338379,3.433823108673096,2.244547843933105,-0.8400000333786011,0.2800000011920929,0.9100000262260436,30.120849609375,-151.90830993652344,-101.70890045166016,4.489095687866211,6.594854831695557,5.869803428649902,-0.1400000005960464,-1.2599999904632568,1.3300000429153442,59.92646408081055,-151.50209045410156,120.63844299316406,9.298840522766112,-3.376393318176269,2.366586208343506,-8.539999961853027,3.920000076293945,2.0299999713897705,159.62525939941406,-100.7002182006836,-190.78797912597656
3334,1720095564.764078,9.39216423034668,-0.7824809551239014,3.189746379852295,2.1700000762939453,-0.2100000083446502,-0.2100000083446502,169.5530548095703,-224.2682037353516,162.09812927246094,5.360114097595215,-5.106465816497803,6.915504455566406,0.2100000083446502,-1.680000066757202,-0.4900000095367431,47.25,15.750000953674316,-30.450000762939453,8.94229793548584,3.436216115951538,2.2397620677948,0.4200000166893005,0.1400000005960464,0.7699999809265137,28.246618270874023,-149.71414184570312,-100.18589782714844,4.508238792419434,6.621176719665527,5.874589443206787,0.1400000005960464,-1.2599999904632568,0.9800000190734864,59.92646408081055,-151.50209045410156,120.63844299316406,9.423272132873535,-3.1777820587158203,2.6465563774108887,-5.320000171661377,5.320000171661377,1.75,162.43942260742188,-101.69151306152344,-189.30032348632807
3335,1720095564.73872,9.44480800628662,-0.825553297996521,3.247176170349121,2.0299999713897705,-1.0499999523162842,0.4200000166893005,171.60121154785156,-222.18557739257807,165.81805419921875,5.388829231262207,-4.998785018920898,6.913111686706543,-0.2100000083446502,-1.75,-0.4900000095367431,45.900001525878906,15.450000762939451,-29.700000762939453,9.059550285339355,3.4098939895629883,2.2014753818511963,1.1200000047683716,0.1400000005960464,0.4900000095367431,27.05668067932129,-147.69100952148438,-102.90338897705078,4.477130889892578,6.618783950805664,5.881768226623535,0.5600000023841858,-1.190000057220459,0.7699999809265137,59.92646408081055,-151.50209045410156,120.63844299316406,9.542917251586914,-2.754237174987793,2.9767775535583496,-5.460000038146973,9.9399995803833,-0.5600000023841858,160.53988647460938,-101.10257720947266,-189.3233795166016
3336,1720095564.73853,9.492666244506836,-0.9428057670593262,3.1777820587158203,-1.399999976158142,-0.4900000095367431,1.6100000143051147,169.94961547851562,-222.18280029296875,164.7081298828125,5.305077075958252,-5.101680278778076,6.920289993286133,-0.0700000002980232,-1.8200000524520876,-0.699999988079071,47.400001525878906,16.350000381469727,-29.250001907348636,9.169623374938965,3.4457876682281494,2.163188934326172,0.4200000166893005,-0.1400000005960464,0.2100000083446502,29.30172348022461,-150.16571044921875,-100.69357299804688,4.513024806976318,6.661856174468994,5.814766883850098,0.9800000190734864,-0.9100000262260436,0.699999988079071,59.92646408081055,-151.50209045410156,120.63844299316406,9.913818359375,-2.730308055877685,3.3069989681243896,-8.119999885559082,14.210000038146973,-6.369999885559082,159.35203552246094,-101.71931457519533,-191.2471618652344
3337,1720095564.7385058,9.21748161315918,-0.9260554313659668,2.98634934425354,0.2100000083446502,4.409999847412109,2.5199999809265137,169.71966552734375,-222.1524200439453,164.0141143798828,5.384043216705322,-5.195003509521484,6.90114688873291,0.9800000190734864,-2.0299999713897705,-0.699999988079071,45.900001525878906,15.15000057220459,-27.750001907348636,9.294054985046388,3.4170727729797363,2.3211207389831543,-1.6100000143051147,0.0700000002980232,-0.1400000005960464,31.70792007446289,-146.56533813476562,-97.82849884033205,4.457987785339356,6.733643531799316,5.800409317016602,0.8400000333786011,-0.5600000023841858,0.4900000095367431,59.92646408081055,-151.50209045410156,120.63844299316406,10.172252655029297,-2.8212387561798096,3.7999379634857178,-8.329999923706055,18.6200008392334,-12.739999771118164,159.8856658935547,-98.36367797851562,-191.0764617919922
3338,1720095564.7641468,9.195945739746094,-0.9380199909210204,2.928919553756714,-2.380000114440918,-4.550000190734863,3.150000095367432,168.64572143554688,-221.70481872558597,163.96047973632812,5.4869384765625,-5.35532808303833,6.925076007843018,3.3600001335144043,-2.380000114440918,-0.7699999809265137,47.70000076293945,15.600000381469728,-29.700000762939453,9.258161544799805,3.4194657802581787,2.479052782058716,-1.190000057220459,1.2599999904632568,-0.7699999809265137,30.305450439453125,-150.3483123779297,-101.57378387451172,4.448416233062744,6.752786636352539,5.841088771820068,0.1400000005960464,-0.699999988079071,0.9800000190734864,59.92646408081055,-151.50209045410156,120.63844299316406,10.00953483581543,-2.761415958404541,4.297662734985352,-2.1700000762939453,24.43000030517578,-26.25,161.15274047851562,-98.28984832763672,-189.1092529296875
3339,1720095564.7388828,9.222268104553224,-0.5479759573936462,2.7662017345428467,-1.0499999523162842,-3.5,3.0799999237060547,172.18316650390625,-222.0196228027344,165.84356689453125,5.412757873535156,-4.960498332977295,6.850895881652832,4.619999885559082,-1.9600000381469729,-0.9100000262260436,46.95000076293945,15.90000057220459,-29.700000762939453,9.136122703552246,3.400322437286377,2.5747690200805664,2.240000009536743,2.1700000762939453,-0.9800000190734864,30.8270263671875,-149.635498046875,-101.03036499023438,4.457987785339356,6.680999279022217,5.8554463386535645,-0.5600000023841858,-1.0499999523162842,1.190000057220459,59.92646408081055,-151.50209045410156,120.63844299316406,10.014320373535156,-2.802095413208008,4.460380554199219,11.0600004196167,35.06999969482422,-38.9900016784668,160.36825561523438,-98.97921752929688,-191.32899475097656
3340,1720095564.738696,9.270126342773438,-0.6341206431388855,3.113173484802246,1.0499999523162842,-7.980000019073486,1.680000066757202,170.4488525390625,-224.67453002929688,163.00140380859375,5.2811479568481445,-4.812138080596924,6.951397895812988,4.130000114440918,-2.309999942779541,-0.699999988079071,46.650001525878906,13.950000762939451,-30.900001525878903,8.947083473205566,3.0605294704437256,2.6321988105773926,5.949999809265137,2.380000114440918,0.2800000011920929,29.24003791809082,-150.93927001953125,-99.84898376464844,4.4938812255859375,6.5804972648620605,5.97269868850708,-0.1400000005960464,-1.0499999523162842,0.9100000262260436,59.92646408081055,-151.50209045410156,120.63844299316406,9.717599868774414,-2.51733922958374,3.9387266635894775,29.049999237060547,46.060001373291016,-44.310001373291016,159.29815673828125,-99.09037017822266,-193.58450317382807
3341,1720095564.7386258,9.301233291625977,-0.5384043455123901,3.280677080154419,4.130000114440918,-9.239999771118164,-1.0499999523162842,169.60353088378906,-225.5777282714844,163.96844482421875,5.321827411651611,-4.86956787109375,7.080615043640137,2.5899999141693115,-3.220000028610229,-0.3499999940395355,46.05000305175781,15.450000762939451,-30.000001907348636,8.808294296264648,3.129923820495605,2.6441633701324463,7.210000038146973,3.7100000381469727,2.0299999713897705,30.99189567565918,-149.12002563476562,-99.9587860107422,4.553704261779785,6.55417537689209,6.0253424644470215,1.190000057220459,-1.4700000286102295,0.4900000095367431,59.92646408081055,-151.50209045410156,120.63844299316406,9.468737602233888,-1.9238981008529663,3.175389051437378,41.29999923706055,49.77000045776367,-48.58000183105469,159.70074462890625,-95.68355560302734,-191.16085815429688
3342,1720095564.7642667,9.176802635192873,-0.387651115655899,3.120352268218994,9.3100004196167,-10.010000228881836,-3.3600001335144043,169.59719848632812,-222.65899658203125,164.20550537109375,5.635298728942871,-5.75494384765625,7.616626262664795,4.619999885559082,-6.230000019073486,0.0700000002980232,46.5,14.550000190734863,-29.55000114440918,8.588147163391113,3.019850015640259,2.641770601272583,8.050000190734863,4.690000057220459,3.920000076293945,29.466161727905277,-149.9300994873047,-100.7930908203125,4.536953926086426,6.76235818862915,6.195239067077637,1.4700000286102295,-4.059999942779541,-0.2800000011920929,59.92646408081055,-151.50209045410156,120.63844299316406,9.602740287780762,-1.531461238861084,2.859525203704834,38.84999847412109,47.59999847412109,-54.7400016784668,158.9556884765625,-94.76471710205078,-191.41354370117188
3343,1720095564.7389538,9.597954750061035,-0.4833674430847168,3.261533737182617,7.070000171661377,-11.270000457763672,-5.110000133514404,169.67343139648438,-221.6025848388672,164.95301818847656,6.109094142913818,-6.295741081237793,7.820023536682129,13.15999984741211,-9.59000015258789,-1.1200000047683716,47.10000228881836,16.350000381469727,-28.80000114440918,8.633612632751465,2.8762755393981934,2.4694812297821045,8.819999694824219,4.619999885559082,6.159999847412109,27.68911361694336,-148.8345947265625,-101.00755310058594,4.682920932769775,6.989684581756592,5.865017890930176,-3.0799999237060547,-7.769999980926514,-0.1400000005960464,59.92646408081055,-151.50209045410156,120.63844299316406,9.990391731262209,-1.2155972719192505,2.8547394275665283,29.540000915527344,48.15999984741211,-59.92000198364258,161.42730712890625,-95.46955108642578,-192.8167266845703
3344,1720095564.7387888,9.545310020446776,-0.6580497026443481,3.1323165893554688,7.139999866485596,-4.409999847412109,-6.510000228881836,170.89515686035156,-219.9383850097656,166.361328125,6.709714412689209,-6.841324329376221,7.774558544158935,28.350000381469727,-12.460000038146973,1.3300000429153442,48.900001525878906,16.650001525878906,-29.55000114440918,8.817866325378418,3.0246357917785645,2.249333620071411,9.170000076293944,5.039999961853027,8.1899995803833,29.88673591613769,-147.0790557861328,-100.15033721923828,4.692492961883545,6.750393867492676,5.79083776473999,-8.470000267028809,-9.100000381469728,0.7699999809265137,59.92646408081055,-151.50209045410156,120.63844299316406,10.117215156555176,-0.727444052696228,3.08206558227539,15.609999656677246,52.150001525878906,-63.4900016784668,158.3519744873047,-92.85453033447266,-195.13629150390625
3345,1720095564.7387648,9.416092872619627,-0.6580497026443481,2.775773286819458,5.320000171661377,-4.059999942779541,-7.420000076293945,168.58184814453125,-224.35855102539065,162.78955078125,7.2050461769104,-7.492195129394531,8.078457832336426,48.369998931884766,-17.920000076293945,2.6600000858306885,47.10000228881836,15.600000381469728,-29.250001907348636,8.796330451965332,3.161031484603882,2.0818300247192383,10.640000343322754,5.320000171661377,9.869999885559082,28.3035945892334,-148.9415740966797,-101.17082214355467,4.879139423370361,6.616390705108643,5.932019233703613,-11.130000114440918,-11.0600004196167,2.1700000762939453,59.92646408081055,-151.50209045410156,120.63844299316406,9.906639099121094,-0.8279461860656738,3.3069989681243896,-2.940000057220459,55.58000183105469,-62.29999923706055,157.4523162841797,-91.8894500732422,-193.83770751953125
3346,1720095564.7644055,9.463951110839844,-0.6652284264564514,2.806881189346313,3.640000104904175,-6.789999961853027,-7.699999809265137,168.10531616210938,-222.4215850830078,162.85572814941406,9.466344833374023,-7.374942779541016,7.252904415130615,45.9900016784668,-34.02000045776367,19.11000061035156,46.5,15.90000057220459,-30.150001525878903,8.83700942993164,3.034207344055176,1.97893500328064,12.18000030517578,4.619999885559082,11.760000228881836,29.770172119140625,-150.78421020507812,-101.36709594726562,4.90546178817749,6.9107184410095215,5.714264392852783,-16.239999771118164,-13.369999885559082,2.240000009536743,59.92646408081055,-151.50209045410156,120.63844299316406,9.684099197387695,-1.32806396484375,3.426644325256348,-21.770000457763672,60.900001525878906,-59.08000183105469,159.92352294921875,-92.87415313720705,-196.41197204589844
3347,1720095564.790047,,,,,,,,,,9.499845504760742,-8.741292953491211,6.652284622192383,39.34000015258789,-30.170000076293945,30.520000457763672,47.85000228881836,15.750000953674316,-29.250001907348636,8.913582801818848,3.0054924488067627,1.9382555484771729,13.720000267028809,4.130000114440918,12.949999809265137,29.331300735473636,-148.83935546875,-100.17828369140624,4.785816192626953,6.659463405609131,5.98944902420044,-24.290000915527344,-15.470000267028809,3.0799999237060547,59.92646408081055,-151.50209045410156,120.63844299316406,,,,,,,,,
3348,1720095564.738859,9.530953407287598,-0.746587336063385,2.8762755393981934,3.289999961853028,-8.960000038146973,-8.260000228881836,169.44390869140625,-221.29234313964844,165.4300994873047,8.889653205871582,-6.2502760887146,6.95379114151001,47.459999084472656,-18.1299991607666,41.43999862670898,47.70000076293945,16.950000762939453,-29.700000762939453,8.951869010925293,3.0054924488067627,1.8568966388702397,15.539999961853027,2.240000009536743,14.420000076293944,27.214658737182617,-149.0566864013672,-103.9876480102539,4.950926780700684,6.807823657989502,6.080379486083984,-31.290000915527344,-19.46000099182129,3.009999990463257,59.92646408081055,-151.50209045410156,120.63844299316406,9.547703742980955,-1.742037057876587,3.613291263580322,-35.90999984741211,63.97999954223633,-55.29999923706055,155.8563995361328,-91.95372772216795,-199.44583129882807
3349,1720095564.7388349,9.554882049560549,-0.8303391337394714,2.8762755393981934,3.569999933242798,-9.170000076293944,-9.380000114440918,170.25877380371094,-222.7560577392578,165.445556640625,8.059314727783203,-4.893496990203857,7.317512989044189,49.06999969482422,-19.040000915527344,53.900001525878906,48.30000305175781,16.05000114440918,-31.350000381469727,8.911190032958984,3.0054924488067627,2.1464385986328125,17.56999969482422,1.2599999904632568,15.960000038146973,30.123918533325195,-148.98760986328125,-101.19117736816406,5.061000823974609,6.51828145980835,5.774087429046631,-36.540000915527344,-19.809999465942383,1.6100000143051147,59.92646408081055,-151.50209045410156,120.63844299316406,9.329948425292969,-1.6846072673797607,3.596540927886963,-48.43999862670898,62.369998931884766,-51.79999923706055,160.64501953125,-93.79795837402344,-196.8609313964844
3350,1720095564.7644758,9.581204414367676,-0.7561589479446411,3.053350687026977,5.039999961853027,-9.100000381469728,-10.779999732971191,167.8389892578125,-221.5595245361328,164.55238342285156,8.310569763183594,-3.4457876682281494,7.9707770347595215,30.100000381469727,-20.09000015258789,68.25,46.95000076293945,15.750000953674316,-31.650001525878903,8.982976913452148,3.05574369430542,2.2876200675964355,20.440000534057617,0.2100000083446502,16.799999237060547,31.343896865844727,-148.92367553710938,-100.62727355957033,4.970069885253906,5.80758810043335,5.764515399932861,-33.31999969482422,-16.3799991607666,-1.8899999856948853,59.92646408081055,-151.50209045410156,120.63844299316406,9.475915908813477,-2.28283429145813,3.491252899169922,-60.68999862670898,58.17000198364258,-42.97999954223633,158.13267517089844,-95.5409698486328,-200.93809509277344
3351,1720095564.790117,9.684099197387695,-0.6245490312576294,2.955241441726685,5.389999866485596,-7.0,-12.039999961853027,168.78233337402344,-221.1952667236328,164.1900634765625,7.86548900604248,-3.589362144470215,7.793701648712158,-2.450000047683716,-14.06999969482422,80.5,46.20000076293945,15.750000953674316,-30.000001907348636,8.851366996765137,3.218461275100708,2.191903829574585,21.489999771118164,-1.4700000286102295,16.3799991607666,28.761306762695312,-150.8824920654297,-101.7983169555664,5.001177787780762,5.915268898010254,5.6592278480529785,-22.26000022888184,-12.670000076293944,-6.300000190734863,59.92646408081055,-151.50209045410156,120.63844299316406,9.049978256225586,-3.357249975204468,3.6204700469970703,-67.9000015258789,55.22999954223633,-28.489999771118164,154.0575408935547,-89.26289367675781,-199.5175323486328
3352,1720095564.739046,9.765458106994627,-0.5742979645729065,2.735093832015991,6.860000133514404,-3.0799999237060547,-12.600000381469728,169.4156494140625,-221.2982940673828,164.58811950683594,6.793466091156006,-4.20194673538208,8.205282211303711,-34.650001525878906,-1.9600000381469729,90.86000061035156,46.35000228881836,15.300000190734863,-29.850000381469727,8.805901527404785,3.3333208560943604,2.129688262939453,18.690000534057617,-3.7100000381469727,15.260000228881836,27.60465812683105,-153.09255981445312,-103.58419799804688,4.895889759063721,6.082772254943848,5.71187162399292,-14.980000495910645,-8.119999885559082,-6.579999923706055,59.92646408081055,-151.50209045410156,120.63844299316406,8.51636028289795,-4.297662734985352,3.893261432647705,-63.84000015258789,52.290000915527344,-12.460000038146973,155.95838928222656,-88.53141021728516,-199.8211669921875
3353,1720095564.738977,9.593168258666992,-0.5384043455123901,2.9767775535583496,6.579999923706055,-2.7300000190734863,-12.529999732971191,170.8660125732422,-220.98486328125,167.01712036132812,6.173702716827393,-4.335949420928955,7.930097579956055,-63.77000045776367,5.599999904632568,98.6999969482422,44.85000228881836,12.300000190734863,-29.250001907348636,8.858545303344727,3.4122869968414307,2.1033661365509038,13.649999618530272,-5.389999866485596,14.279999732971191,29.51272201538086,-154.7200469970703,-101.7826919555664,4.867175102233887,6.130630493164063,6.05884313583374,-10.220000267028809,-5.880000114440918,-5.949999809265137,59.92646408081055,-151.50209045410156,120.63844299316406,7.982741355895996,-4.572847366333008,4.067943572998047,-50.18999862670898,45.56999969482422,5.389999866485596,153.78684997558594,-92.16114807128906,-201.85189819335935
3354,1720095564.764618,9.64581298828125,-0.3445787727832794,2.7231295108795166,9.170000076293944,0.9100000262260436,-12.529999732971191,169.611328125,-222.6560211181641,164.6265106201172,5.027499675750732,-5.381650447845459,8.305784225463867,-94.1500015258789,8.960000038146973,107.37999725341795,42.75,11.550000190734863,-25.650001525878903,8.915975570678711,3.421858549118042,2.0770442485809326,9.239999771118164,-6.929999828338623,12.880000114440918,29.92255401611328,-153.19142150878906,-101.09390258789062,4.90546178817749,6.683392524719238,5.963127136230469,-7.630000114440918,-3.569999933242798,-7.210000038146973,59.92646408081055,-151.50209045410156,120.63844299316406,7.566375255584717,-4.572847366333008,3.795152187347412,-34.369998931884766,37.09999847412109,23.100000381469727,152.3694610595703,-92.4676284790039,-203.2985992431641
3355,1720095564.7902591,9.466344833374023,-0.5072965025901794,2.8690967559814453,10.5,1.1200000047683716,-12.109999656677246,169.83316040039062,-221.3679656982422,164.71316528320312,4.840853214263916,-6.465637683868408,8.638398170471191,-116.5500030517578,7.559999942779541,113.88999938964844,44.85000228881836,10.65000057220459,-26.250001907348636,9.11458683013916,3.280677080154419,1.986113667488098,7.559999942779541,-8.260000228881836,11.40999984741211,30.284832000732425,-152.43336486816406,-99.13953399658205,4.792994976043701,6.879610538482666,5.8554463386535645,-5.670000076293945,-1.3300000429153442,-7.980000019073486,59.92646408081055,-151.50209045410156,120.63844299316406,7.592697143554687,-4.417308330535889,3.843010425567627,-24.07999992370605,26.670000076293945,39.20000076293945,152.60972595214844,-91.45548248291016,-203.82171630859372
3356,1720095564.739143,9.389771461486816,-0.5527617931365967,2.98634934425354,12.109999656677246,-2.240000009536743,-10.640000343322754,172.0967254638672,-219.5985565185547,167.53500366210938,4.082301139831543,-6.688178062438965,9.057157516479492,-130.89999389648438,10.289999961853027,122.70999908447266,42.0,9.15000057220459,-20.850000381469727,9.282090187072754,3.2974274158477783,1.945434331893921,7.699999809265137,-8.680000305175781,9.65999984741211,32.165523529052734,-153.02626037597656,-99.67779541015624,4.654206275939941,6.606819152832031,5.678370952606201,-4.480000019073486,0.2800000011920929,-9.59000015258789,59.92646408081055,-151.50209045410156,120.63844299316406,7.78652286529541,-4.252197742462158,3.742508172988892,-18.479999542236328,15.119999885559082,55.09000015258789,153.1218719482422,-90.7446517944336,-203.5589599609375
3357,1720095564.7390928,9.356270790100098,-0.4881532490253448,3.007885456085205,15.399999618530272,-2.240000009536743,-9.170000076293944,169.43746948242188,-222.89361572265625,164.44537353515625,2.7087719440460205,-6.355564117431641,8.68147087097168,-149.3800048828125,14.770000457763672,134.0500030517578,42.30000305175781,7.200000286102295,-18.900001525878903,9.425664901733398,3.2998201847076416,1.971756219863892,9.029999732971191,-8.329999923706055,6.929999828338623,30.594764709472656,-156.486083984375,-101.12169647216795,4.474738121032715,6.156952381134033,5.652049064636231,-3.7100000381469727,0.6299999952316284,-12.109999656677246,59.92646408081055,-151.50209045410156,120.63844299316406,7.788915634155273,-4.087087154388428,3.503217458724976,-17.989999771118164,3.7799999713897705,70.13999938964844,152.64697265625,-91.72742462158205,-203.87017822265625
3358,1720095564.7647338,9.507023811340332,-0.5144752264022827,3.046171903610229,16.030000686645508,-3.5,-7.630000114440918,168.83328247070312,-221.74411010742188,163.39151000976562,0.7776951193809509,-6.403421878814697,7.56158971786499,-168.97999572753906,16.520000457763672,144.5500030517578,41.70000076293945,7.200000286102295,-15.600000381469728,9.468737602233888,3.3046059608459477,1.957398772239685,11.829999923706056,-7.559999942779541,3.150000095367432,30.91433334350586,-151.49684143066406,-100.37960052490234,4.474738121032715,6.209596633911133,5.5611186027526855,-4.409999847412109,0.3499999940395355,-13.230000495910645,59.92646408081055,-151.50209045410156,120.63844299316406,7.779344081878662,-4.0152997970581055,3.385964870452881,-19.809999465942383,-9.520000457763672,84.27999877929688,152.9774932861328,-94.1759033203125,-204.44659423828125
3359,1720095564.790375,9.547703742980955,-0.3062922358512878,2.979170560836792,18.1299991607666,-3.569999933242798,-6.300000190734863,168.1554718017578,-219.490966796875,164.77674865722656,-0.825553297996521,-6.714499950408936,6.348385334014893,-179.8300018310547,11.130000114440918,154.55999755859375,39.150001525878906,5.100000381469727,-14.100000381469728,9.353878021240234,3.309391975402832,1.90954065322876,13.649999618530272,-6.720000267028809,-0.2100000083446502,31.98299789428711,-157.22608947753906,-99.01920318603516,4.347914218902588,6.010984897613525,5.628119945526123,-6.019999980926514,1.190000057220459,-13.93000030517578,59.92646408081055,-151.50209045410156,120.63844299316406,7.898989677429199,-4.072729587554932,3.338106870651245,-22.88999938964844,-20.15999984741211,98.3499984741211,152.4403533935547,-100.73210144042967,-206.3061370849609
3360,1720095564.7392368,9.389771461486816,-0.2345049977302551,3.043779134750366,20.229999542236328,-2.940000057220459,-4.96999979019165,170.55686950683594,-220.4116058349609,166.2797088623047,-0.9978426694869996,-6.8054304122924805,5.903304100036621,-190.6800079345703,6.019999980926514,158.41000366210938,37.5,3.3000001907348637,-7.950000286102295,9.373021125793455,3.3261423110961914,1.8162171840667725,13.93000030517578,-5.949999809265137,-3.220000028610229,30.456512451171875,-154.075927734375,-100.9738998413086,4.259376525878906,5.764515399932861,6.034914016723633,-5.949999809265137,2.0999999046325684,-14.0,59.92646408081055,-151.50209045410156,120.63844299316406,7.903775215148926,-4.541739463806152,3.153852939605713,-25.690000534057617,-26.950000762939453,108.91999816894533,155.5316925048828,-97.2238540649414,-201.49935913085935
3361,1720095564.7393138,9.37541389465332,-0.3110780417919159,2.9767775535583496,21.6299991607666,-3.5,-3.640000104904175,172.35317993164062,-221.2232666015625,168.22657775878906,-2.2038683891296387,-6.982505798339844,5.2093610763549805,-188.9300079345703,9.59000015258789,159.80999755859375,33.900001525878906,1.2000000476837158,-3.900000095367432,9.394556999206545,3.0964231491088867,1.8353605270385744,13.440000534057615,-5.460000038146973,-5.039999961853027,33.12551498413086,-155.0189971923828,-97.65431213378906,4.28809118270874,5.872196674346924,6.317277431488037,-1.8200000524520876,2.450000047683716,-15.260000228881836,59.92646408081055,-151.50209045410156,120.63844299316406,7.937276363372803,-5.168681621551514,3.4816813468933105,-28.770000457763672,-36.2599983215332,116.27000427246094,155.11373901367188,-97.43405151367188,-202.7955017089844
3362,1720095564.7649548,9.286876678466797,-0.3589362204074859,2.878668546676636,23.940000534057617,-3.220000028610229,-2.1700000762939453,171.63551330566406,-220.85821533203125,166.4736785888672,-3.345285415649414,-7.547232151031494,4.582418918609619,-172.69000244140625,7.980000019073486,161.83999633789062,32.85000228881836,0.6000000238418579,1.2000000476837158,9.45438003540039,2.866703987121582,1.8545037508010864,12.460000038146973,-5.320000171661377,-4.760000228881836,32.95265579223633,-149.69606018066406,-98.11143493652344,4.355092525482178,5.912876129150391,6.77910852432251,6.860000133514404,3.7100000381469727,-16.520000457763672,59.92646408081055,-151.50209045410156,120.63844299316406,8.028206825256348,-5.4869384765625,3.816688299179077,-23.59000015258789,-48.58000183105469,121.66000366210938,153.06292724609375,-102.1575164794922,-205.86204528808597
3363,1720095564.790596,9.18398094177246,-0.3804723918437958,2.8930258750915527,24.920000076293945,-5.809999942779541,0.0700000002980232,170.9088592529297,-220.2152862548828,165.61122131347656,-3.19453239440918,-8.636005401611328,4.111016273498535,-142.4499969482422,4.760000228881836,159.8800048828125,31.350000381469727,-0.1500000059604644,4.800000190734863,9.547703742980955,2.739879846572876,1.9382555484771729,14.140000343322754,-5.039999961853027,-3.849999904632568,31.06418228149414,-152.0248565673828,-98.23123168945312,4.405344009399414,6.2646331787109375,6.728857517242432,13.510000228881836,5.670000076293945,-15.050000190734863,59.92646408081055,-151.50209045410156,120.63844299316406,8.205282211303711,-5.92962646484375,3.8980472087860103,-4.550000190734863,-57.959999084472656,123.97000122070312,152.99696350097656,-102.65219116210938,-203.9866943359375
3364,1720095564.739389,9.265339851379396,-0.1651106625795364,2.8906328678131104,25.34000015258789,-10.220000267028809,2.0999999046325684,169.90777587890625,-217.391845703125,165.83804321289062,,,,,,,,,,9.61949062347412,2.7662017345428467,1.916719436645508,16.940000534057617,-4.340000152587891,-2.940000057220459,30.05445671081543,-152.682861328125,-101.004638671875,4.268948078155518,6.269419193267822,6.697749614715576,16.170000076293945,6.720000267028809,-12.739999771118164,59.92646408081055,-151.50209045410156,120.63844299316406,8.370392799377441,-5.999020576477051,4.168446063995361,18.479999542236328,-61.18000030517578,122.8499984741211,155.99310302734375,-104.72431182861328,-201.7105407714844
3365,1720095564.7395818,9.57402515411377,-0.2033971846103668,3.036600351333618,25.690000534057617,-12.949999809265137,2.450000047683716,169.97019958496094,-220.5785369873047,166.11386108398438,-3.374000310897827,-9.535738945007324,3.4673237800598145,-101.77999877929688,15.050000190734863,150.99000549316406,28.500001907348636,-1.8000000715255735,9.450000762939451,9.530953407287598,2.605876922607422,1.97893500328064,19.040000915527344,-3.3600001335144043,-0.8400000333786011,29.161582946777344,-154.3566131591797,-98.77201080322266,4.204339504241943,6.343599319458008,6.355564117431641,17.219999313354492,6.019999980926514,-11.270000457763672,59.92646408081055,-151.50209045410156,120.63844299316406,8.449358940124512,-5.683156490325928,4.333556652069092,37.65999984741211,-60.20000076293945,123.34000396728516,155.563232421875,-103.0573272705078,-201.41217041015625
3366,1720095564.7393398,9.542917251586914,-0.0574297942221164,3.141888380050659,29.46999931335449,-10.850000381469728,1.6100000143051147,169.4662628173828,-218.0877990722656,167.68023681640625,-3.668328046798706,-10.26796817779541,3.2017109394073486,-59.709999084472656,30.380001068115234,133.83999633789062,27.000001907348636,-2.400000095367432,13.200000762939451,9.298840522766112,2.392908096313477,2.0339717864990234,20.15999984741211,-1.75,3.220000028610229,30.57721519470215,-155.65042114257812,-98.16973114013672,4.28809118270874,6.659463405609131,6.331634998321533,15.119999885559082,4.760000228881836,-8.399999618530273,59.92646408081055,-151.50209045410156,120.63844299316406,8.736507415771484,-5.427115440368652,3.924369335174561,50.2599983215332,-57.68000030517578,124.25,155.21800231933594,-105.89250183105467,-199.8096466064453
3367,1720095564.7649808,9.411307334899902,0.0358936227858066,3.1227450370788574,30.450000762939453,-7.630000114440918,1.1200000047683716,170.38168334960938,-221.96961975097656,166.4252471923828,-4.309627532958984,-9.01887035369873,3.457752227783203,-19.31999969482422,44.09999847412109,105.0,25.80000114440918,-2.8500001430511475,14.40000057220459,9.260554313659668,2.206261157989502,1.983720779418945,21.21000099182129,0.0,8.960000038146973,28.500463485717773,-153.49888610839844,-102.68092346191406,4.575240135192871,6.8126091957092285,6.405815124511719,11.550000190734863,2.5199999809265137,-6.019999980926514,59.92646408081055,-151.50209045410156,120.63844299316406,8.571396827697754,-5.7860517501831055,3.508003234863281,52.84999847412109,-59.150001525878906,120.81999969482422,156.6617889404297,-111.70036315917967,-199.58718872070312
3368,1720095564.7395098,9.353878021240234,0.0358936227858066,3.019850015640259,33.38999938964844,-7.210000038146973,0.4900000095367431,170.89427185058594,-220.9789123535156,167.85910034179688,-4.86956787109375,-7.8463454246521,3.137102603912353,14.980000495910645,43.400001525878906,80.98999786376953,22.950000762939453,-3.900000095367432,15.90000057220459,,,,,,,,,,4.764279842376709,6.71928596496582,6.231132507324219,12.18000030517578,2.5899999141693115,-5.460000038146973,59.92646408081055,-151.50209045410156,120.63844299316406,7.932490348815918,-5.422329902648926,3.47210955619812,53.970001220703125,-66.91999816894531,116.34000396728516,156.02932739257812,-111.03759765625,-197.6430511474609
3369,1720095564.7651508,9.451987266540527,0.1244312226772308,2.6609137058258057,33.7400016784668,-8.1899995803833,-0.4900000095367431,168.68516540527344,-220.0965881347656,165.92752075195312,-4.017692565917969,-7.619019508361816,2.558018684387207,40.67000198364258,32.40999984741211,60.40999984741211,24.0,-4.050000190734863,15.000000953674316,9.449594497680664,2.19668960571289,1.9119335412979128,23.170000076293945,1.3300000429153442,15.190000534057615,30.09124565124512,-153.71546936035156,-98.38421630859376,4.893496990203857,6.673820495605469,5.953555107116699,14.770000457763672,3.5,-4.690000057220459,59.92646408081055,-151.50209045410156,120.63844299316406,7.82959508895874,-5.419936656951904,3.4673237800598145,61.11000061035156,-74.2699966430664,111.2300033569336,152.26109313964844,-111.25215911865234,-202.56234741210935
3370,1720095564.7394848,9.55009651184082,0.2273262739181518,2.739879846572876,31.63999938964844,-11.270000457763672,-1.399999976158142,170.33807373046875,-218.77896118164065,166.7107696533203,-3.1993181705474854,-8.06410026550293,2.19668960571289,64.19000244140625,32.689998626708984,36.68000030517578,23.400001525878903,-5.25,15.600000381469728,9.521381378173828,2.2995846271514893,1.806645631790161,24.56999969482422,3.7100000381469727,21.21000099182129,29.88102912902832,-152.64059448242188,-100.01467895507812,4.874353885650635,6.891575336456299,5.745372295379639,16.239999771118164,4.269999980926514,-4.619999885559082,59.92646408081055,-151.50209045410156,120.63844299316406,8.255533218383789,-5.163895606994629,3.479288339614868,68.87999725341797,-72.44999694824219,105.27999877929688,154.99131774902344,-112.1823501586914,-197.41845703125
3371,1720095564.7651258,9.629061698913574,0.4211518168449402,2.790130853652954,31.63999938964844,-10.779999732971191,0.2100000083446502,171.0154266357422,-221.79275512695312,167.99440002441406,-3.364428758621216,-8.052135467529297,1.8856115341186523,87.77999877929688,36.75,13.369999885559082,22.200000762939453,-3.900000095367432,13.800000190734863,9.468737602233888,2.4694812297821045,1.7659661769866943,25.200000762939453,5.389999866485596,26.809999465942383,32.186004638671875,-155.94200134277344,-99.49386596679688,5.151931285858154,7.171545505523682,5.388829231262207,16.65999984741211,3.920000076293945,-4.340000152587891,59.92646408081055,-151.50209045410156,120.63844299316406,8.423036575317383,-5.063393592834473,3.1442811489105225,72.59000396728516,-61.67000198364258,99.19000244140624,156.8179931640625,-115.14710998535156,-197.67588806152344
3372,1720095564.7396288,,,,,,,,,,-3.330928087234497,-7.3797287940979,1.7563945055007937,96.11000061035156,29.540000915527344,-1.8899999856948853,21.75,-3.150000095367432,13.350000381469728,9.617097854614258,2.7279152870178223,1.517103672027588,25.479999542236328,6.369999885559082,29.88999938964844,30.28954124450684,-152.432373046875,-98.99920654296876,5.101680278778076,7.499373912811279,5.17346715927124,16.170000076293945,5.53000020980835,-4.130000114440918,59.92646408081055,-151.50209045410156,120.63844299316406,7.824809551239014,-5.290719985961914,3.433823108673096,56.90999984741211,-53.68999862670898,91.84000396728516,155.7491912841797,-114.41864013671876,-196.4180908203125
3373,1720095564.73989,9.504631042480469,0.7394086122512817,2.7015931606292725,29.540000915527344,-9.9399995803833,1.8200000524520876,171.95022583007812,-220.87075805664065,169.69361877441406,-2.5053746700286865,-6.1378092765808105,2.290013074874878,76.09000396728516,21.280000686645508,-12.18000030517578,21.600000381469727,-3.3000001907348637,12.450000762939451,9.70563507080078,3.0030996799468994,1.2897775173187256,23.100000381469727,7.210000038146973,31.5,29.617656707763672,-153.37782287597656,-99.0221176147461,5.022714138031006,7.8463454246521,4.982034683227539,15.81999969482422,5.809999942779541,-4.690000057220459,59.92646408081055,-151.50209045410156,120.63844299316406,7.374942779541016,-4.831281661987305,3.7831876277923584,37.17000198364258,-54.11000061035156,85.26000213623047,156.78457641601562,-115.91471862792967,-195.9893035888672
3374,1720095564.7396529,9.526166915893556,0.5479759573936462,2.7805593013763428,24.21999931335449,-12.390000343322754,1.9600000381469729,170.78765869140625,-219.8822326660156,169.31590270996094,-2.249333620071411,-4.9006757736206055,2.823631525039673,38.36000061035156,19.25,-18.1299991607666,21.75,-3.3000001907348637,8.700000762939453,9.698456764221191,3.146674156188965,1.3137065172195437,18.899999618530277,7.769999980926514,34.29999923706055,29.27760505676269,-155.45132446289062,-99.9481430053711,5.058607578277588,8.138280868530273,4.910247325897217,8.890000343322754,3.849999904632568,-6.650000095367432,59.92646408081055,-151.50209045410156,120.63844299316406,7.032756805419922,-5.106465816497803,3.816688299179077,34.29999923706055,-55.58000183105469,81.9000015258789,155.2078857421875,-116.17595672607422,-196.02505493164065
3375,1720095564.7652938,9.624276161193848,0.3709007501602173,2.579555034637451,25.899999618530277,-11.619999885559082,1.680000066757202,170.5546417236328,-222.77256774902344,168.1041717529297,-2.093794584274292,-5.661620616912842,3.4051082134246826,-2.0999999046325684,14.420000076293944,-20.15999984741211,22.05000114440918,-3.0,8.700000762939453,9.514202117919922,2.971991777420044,1.4189945459365845,14.210000038146973,7.699999809265137,37.310001373291016,27.768638610839844,-153.61761474609375,-101.01483917236328,5.230896949768066,8.174174308776855,5.178253173828125,-2.799999952316284,2.380000114440918,-8.470000267028809,59.92646408081055,-151.50209045410156,120.63844299316406,7.0830078125,-5.549153804779053,3.42903733253479,36.540000915527344,-52.77999877929688,77.55999755859375,155.6240692138672,-117.5660400390625,-195.5733337402344
3376,1720095564.739702,9.590775489807127,0.5192610621452332,2.565197467803955,27.440000534057617,-7.559999942779541,1.5399999618530271,169.53810119628906,-221.27252197265625,168.23670959472656,-0.9978426694869996,-9.440022468566896,2.3522286415100098,-19.600000381469727,7.070000171661377,-21.13999938964844,22.5,-3.750000238418579,7.050000190734863,9.404129028320312,2.696807384490967,1.5194966793060305,10.220000267028809,7.490000247955322,39.7599983215332,28.240480422973636,-155.5555419921875,-101.22134399414062,5.273969650268555,7.755414962768555,5.360114097595215,-11.199999809265137,1.3300000429153442,-10.56999969482422,59.92646408081055,-151.50209045410156,120.63844299316406,7.57834005355835,-6.056450366973877,3.2208542823791504,37.2400016784668,-49.34999847412109,72.5199966430664,154.02427673339844,-117.55236053466795,-195.1396331787109
3377,1720095564.740011,9.449594497680664,0.5742979645729065,2.61305570602417,26.530000686645508,-9.449999809265137,1.9600000381469729,170.43215942382812,-223.2791290283203,168.29556274414062,0.727444052696228,-13.316533088684082,2.325906753540039,24.36000061035156,8.960000038146973,-32.20000076293945,22.950000762939453,-1.950000047683716,8.550000190734863,9.66256332397461,2.7662017345428467,1.524282455444336,11.130000114440918,7.070000171661377,40.810001373291016,29.399978637695312,-159.46475219726562,-101.36134338378906,4.993999004364014,6.877217769622803,5.1471452713012695,-14.699999809265137,5.179999828338623,-13.579999923706056,59.92646408081055,-151.50209045410156,120.63844299316406,7.587911605834961,-6.262240409851074,3.266319513320923,26.739999771118164,-47.11000061035156,69.37000274658203,154.00279235839844,-120.19715118408205,-195.04757690429688
3378,1720095564.7397258,9.507023811340332,0.4450809061527252,2.522125244140625,25.40999984741211,-13.440000534057615,1.8899999856948853,169.1266326904297,-219.8814392089844,167.92530822753906,0.6365135312080383,-12.160758972167969,3.0964231491088867,103.87999725341795,29.1200008392334,-50.04999923706055,23.100000381469727,-1.5,6.750000476837158,9.760672569274902,2.802095413208008,1.3759222030639648,12.529999732971191,7.630000114440918,39.7599983215332,28.929887771606445,-155.92652893066406,-100.3104248046875,4.398165225982666,6.479995250701904,5.214146614074707,-15.260000228881836,9.520000457763672,-14.5600004196167,59.92646408081055,-151.50209045410156,120.63844299316406,6.972934246063232,-5.953555107116699,3.98419189453125,24.36000061035156,-47.040000915527344,64.19000244140625,155.9742889404297,-119.45079803466795,-193.24624633789065
3379,1720095564.7653668,9.440022468566896,0.4283305406570434,2.2469406127929688,24.56999969482422,-10.359999656677246,2.940000057220459,168.61929321289062,-216.0712738037109,169.02467346191406,-1.170132040977478,-8.097600936889648,3.4745025634765625,159.9499969482422,31.63999938964844,-52.92000198364258,24.450000762939453,-2.25,5.25,9.58359718322754,2.663306713104248,1.4142086505889893,10.359999656677246,8.470000267028809,38.5,27.20806312561035,-155.6587677001953,-102.35420989990234,4.125373363494873,6.556568145751953,5.329006195068359,-15.68000030517578,9.380000114440918,-12.25,59.92646408081055,-151.50209045410156,120.63844299316406,6.690570831298828,-5.879374980926514,3.912404775619507,38.290000915527344,-49.70000076293945,54.59999847412109,155.68736267089844,-120.1929931640625,-192.9553375244141
3380,1720095564.739843,9.387378692626951,0.5982270240783691,2.3282995223999023,22.399999618530277,-11.6899995803833,3.0799999237060547,168.58580017089844,-220.87808227539065,165.64947509765625,-0.8399107456207275,-5.963127136230469,3.5247535705566406,150.0800018310547,14.279999732971191,-42.84000015258789,24.900001525878903,0.6000000238418579,1.0500000715255735,9.492666244506836,2.4120514392852783,1.5003533363342283,8.050000190734863,8.539999961853027,37.310001373291016,30.350231170654297,-157.21934509277344,-99.56781005859376,4.06315803527832,6.843717098236084,5.661620616912842,-24.71000099182129,7.840000152587891,-6.860000133514404,59.92646408081055,-151.50209045410156,120.63844299316406,6.934647560119629,-6.247882843017578,3.61089825630188,50.81999969482422,-46.7599983215332,47.38999938964844,156.18704223632812,-122.40485382080078,-193.49095153808597
3381,1720095564.7401595,9.667348861694336,0.4139730930328369,2.452730894088745,20.86000061035156,-17.71000099182129,2.7300000190734863,168.28866577148438,-218.14280700683597,168.3793182373047,1.4979604482650757,-7.69080638885498,4.039228916168213,84.0,0.9100000262260436,-35.42000198364258,26.250001907348636,1.0500000715255735,-5.100000381469727,9.538131713867188,2.2589051723480225,1.5793193578720093,10.43000030517578,8.050000190734863,36.04999923706055,28.420259475708008,-158.51654052734375,-102.4483642578125,3.974620342254639,7.276833534240723,6.329241752624512,-42.42000198364258,6.159999847412109,-2.6600000858306885,59.92646408081055,-151.50209045410156,120.63844299316406,6.925076007843018,-6.831752777099609,3.2136754989624023,49.70000076293945,-38.84999847412109,48.02000045776367,152.96356201171875,-118.14231872558594,-193.2745056152344
3382,1720095564.739867,9.81092357635498,0.4379021823406219,2.2876200675964355,21.6299991607666,-16.450000762939453,2.0999999046325684,168.7493438720703,-221.68299865722656,167.0477294921875,1.3902796506881714,-8.468502044677734,4.874353885650635,23.59000015258789,-0.4200000166893005,-40.31999969482422,25.950000762939453,1.0500000715255735,-4.5,9.822887420654297,2.0746512413024902,1.5984625816345217,14.350000381469728,8.119999885559082,34.58000183105469,29.3396110534668,-158.9178924560547,-100.84343719482422,3.960262775421143,6.570925712585449,6.582890033721924,-48.09000015258789,5.740000247955322,-1.8200000524520876,59.92646408081055,-151.50209045410156,120.63844299316406,6.558960914611816,-6.709714412689209,3.084458589553833,39.83000183105469,-35.84000015258789,49.4900016784668,152.241943359375,-121.738525390625,-194.04733276367188
3383,1720095564.765508,9.65299129486084,0.5479759573936462,2.14404559135437,22.96000099182129,-11.34000015258789,3.430000066757202,171.76605224609375,-222.15087890625,170.7296142578125,0.4211518168449402,-8.408679008483887,5.262004852294922,0.3499999940395355,-3.009999990463257,-44.72999954223633,24.900001525878903,0.4500000178813934,-6.300000190734863,9.696063995361328,2.0626866817474365,1.809038519859314,20.299999237060547,9.59000015258789,32.34000015258789,31.365447998046875,-160.03981018066406,-99.3736572265625,3.6348273754119873,5.843481540679932,7.011220932006836,-42.27999877929688,6.929999828338623,-3.430000066757202,59.92646408081055,-151.50209045410156,120.63844299316406,6.310098648071289,-6.602033615112305,3.730543613433838,34.86000061035156,-40.040000915527344,49.06999969482422,153.0726776123047,-121.59899139404295,-192.76649475097656
3384,1720095564.739962,9.631455421447754,0.5192610621452332,2.2397620677948,18.96999931335449,-12.670000076293944,4.550000190734863,172.1570587158203,-220.62620544433597,170.85707092285156,0.4211518168449402,-8.277069091796875,4.5489182472229,0.3499999940395355,-9.869999885559082,-45.0099983215332,26.700000762939453,1.2000000476837158,-6.150000095367432,9.688884735107422,2.249333620071411,1.7324655055999756,24.21999931335449,11.40999984741211,30.030000686645508,26.6466007232666,-158.74044799804688,-102.19580078125,3.6515777111053462,6.204810619354248,7.394085884094238,-28.770000457763672,6.579999923706055,-5.25,59.92646408081055,-151.50209045410156,120.63844299316406,6.470423698425293,-6.642713069915772,4.10623025894165,38.08000183105469,-42.42000198364258,48.369998931884766,155.36734008789062,-125.9429168701172,-191.02854919433597
3385,1720095564.7402368,9.609918594360352,0.2943277060985565,2.486231565475464,17.71000099182129,-18.6200008392334,4.059999942779541,170.5182647705078,-221.9408721923828,170.4948272705078,1.7300724983215332,-9.231839179992676,3.816688299179077,0.2100000083446502,-10.56999969482422,-41.790000915527344,25.500001907348636,0.75,-6.0,9.789386749267578,2.383336544036865,1.6534994840621948,23.309999465942383,12.390000343322754,27.790000915527344,30.064088821411133,-161.4409942626953,-101.9964828491211,3.761651515960693,6.870038986206055,7.666877746582031,-20.09000015258789,6.440000057220459,-6.369999885559082,59.92646408081055,-151.50209045410156,120.63844299316406,6.417779445648193,-6.133023262023926,4.075122356414795,36.04999923706055,-36.470001220703125,45.290000915527344,154.2061004638672,-123.6339874267578,-191.73297119140625
3386,1720095564.739986,9.74870777130127,0.3445787727832794,2.1272952556610107,20.3700008392334,-16.729999542236328,2.799999952316284,166.8253631591797,-222.1395721435547,167.82080078125,2.6537351608276367,-9.456772804260254,4.831281661987305,-7.769999980926514,0.3499999940395355,-38.77999877929688,27.600000381469727,0.0,-8.25,9.638633728027344,2.254119396209717,1.7635732889175415,17.56999969482422,13.09000015258789,25.40999984741211,30.35055160522461,-161.45948791503906,-99.61851501464844,3.8741180896759033,7.303155422210693,7.951633453369141,-23.729999542236328,8.819999694824219,-4.619999885559082,59.92646408081055,-151.50209045410156,120.63844299316406,6.238311290740967,-5.570690155029297,3.960262775421143,25.34000015258789,-28.979999542236328,39.900001525878906,152.9612579345703,-125.02328491210938,-192.6718292236328
3387,1720095564.765627,9.758278846740724,0.5025107264518738,2.184725046157837,18.549999237060547,-14.279999732971191,2.0999999046325684,171.5502471923828,-222.11752319335935,170.4565887451172,1.5793193578720093,-9.349091529846191,5.635298728942871,-5.389999866485596,9.869999885559082,-33.38999938964844,28.650001525878903,0.6000000238418579,-7.200000286102295,9.530953407287598,2.002864122390747,1.8257888555526731,13.720000267028809,12.949999809265137,22.1200008392334,28.80982780456543,-162.83229064941406,-103.21601104736328,3.8836898803710938,6.716893196105957,7.939669132232666,-26.950000762939453,12.670000076293944,-4.269999980926514,59.92646408081055,-151.50209045410156,120.63844299316406,6.329241752624512,-6.085165500640869,3.584576368331909,12.529999732971191,-26.040000915527344,34.15999984741211,151.96444702148438,-122.4787368774414,-193.47576904296875
3388,1720095564.740085,9.877924919128418,0.7130866050720215,1.876039981842041,20.09000015258789,-9.170000076293944,0.8400000333786011,171.67315673828125,-221.33108520507807,171.43629455566406,0.8542681932449341,-8.60250473022461,5.056214809417725,7.699999809265137,9.65999984741211,-29.61000061035156,28.200000762939453,0.75,-8.550000190734863,9.449594497680664,1.7540016174316406,1.749215841293335,11.480000495910645,12.880000114440918,20.020000457763672,28.36406517028809,-162.76856994628906,-104.18302917480467,3.694650173187256,6.245490074157715,7.640555381774902,-21.84000015258789,16.8700008392334,-5.949999809265137,59.92646408081055,-151.50209045410156,120.63844299316406,6.494352340698242,-6.886789321899414,3.658756494522095,6.369999885559082,-24.43000030517578,31.5,154.5597381591797,-126.3573760986328,-192.77883911132807
3389,1720095564.7403889,9.820494651794434,0.98109233379364,1.9262909889221191,17.639999389648438,-3.849999904632568,1.680000066757202,169.0100555419922,-224.06739807128903,170.54852294921875,0.765730619430542,-7.339049339294434,4.929390907287598,7.909999847412109,8.890000343322754,-29.88999938964844,30.000001907348636,1.5,-7.350000381469727,9.66016960144043,1.4309589862823486,1.643927812576294,9.800000190734863,13.230000495910645,20.299999237060547,26.68976783752441,-162.21099853515625,-103.65241241455078,3.2232472896575928,6.001413345336914,7.477837562561035,-15.399999618530272,20.57999992370605,-7.559999942779541,59.92646408081055,-151.50209045410156,120.63844299316406,6.489566802978516,-7.293583869934082,3.730543613433838,11.760000228881836,-24.5,29.96000099182129,151.67784118652344,-127.4610595703125,-193.23556518554688
3390,1720095564.7401109,9.708027839660645,0.7705163955688477,1.9238981008529663,15.470000267028809,-4.480000019073486,2.450000047683716,168.885498046875,-221.9341278076172,169.9462127685547,1.0241646766662598,-7.39647912979126,5.872196674346924,1.4700000286102295,13.09000015258789,-35.13999938964844,28.950000762939453,2.5500001907348637,-8.40000057220459,9.585989952087402,1.3615647554397583,1.890397429466248,11.130000114440918,15.329999923706056,21.90999984741211,27.426410675048828,-157.5712890625,-103.95637512207033,3.1251380443573,6.192846298217773,7.305548191070557,-10.779999732971191,18.6200008392334,-7.769999980926514,59.92646408081055,-151.50209045410156,120.63844299316406,6.245490074157715,-7.166759967803955,4.216303825378418,16.729999542236328,-22.540000915527344,28.559999465942383,152.21322631835938,-122.50514221191406,-192.22044372558597
3391,1720095564.7657518,9.684099197387695,0.7035149931907654,1.7372512817382812,14.84000015258789,-7.349999904632568,3.150000095367432,171.0929718017578,-219.8967437744141,172.25518798828125,1.6870001554489136,-7.38690710067749,6.013378143310547,-1.680000066757202,17.71000099182129,-42.06999969482422,29.55000114440918,1.2000000476837158,-9.90000057220459,9.736742973327637,1.304134964942932,2.024400234222412,15.75,15.609999656677246,23.100000381469727,30.6215934753418,-162.32054138183594,-101.1748275756836,3.2160685062408447,6.278990745544434,7.262475967407227,-13.510000228881836,16.100000381469727,-7.630000114440918,59.92646408081055,-151.50209045410156,120.63844299316406,5.977484226226807,-6.7838945388793945,4.115801811218262,22.540000915527344,-22.26000022888184,26.18000030517578,152.00714111328125,-126.7099380493164,-192.26348876953125
3392,1720095564.740188,9.71520709991455,0.7848738431930542,1.8162171840667725,15.190000534057615,-8.819999694824219,3.849999904632568,169.94747924804688,-220.50454711914065,171.59437561035156,1.6152129173278809,-6.87482500076294,5.197396278381348,-16.3799991607666,16.729999542236328,-42.42000198364258,29.700000762939453,2.400000095367432,-9.600000381469728,10.062178611755373,1.2227760553359983,2.1871180534362797,21.84000015258789,16.030000686645508,23.520000457763672,29.75996780395508,-165.1068878173828,-102.64427947998048,3.180174827575684,5.697514057159424,6.831752777099609,-12.31999969482422,16.3799991607666,-8.399999618530273,59.92646408081055,-151.50209045410156,120.63844299316406,6.092343807220459,-7.037542819976807,3.56782603263855,31.290000915527344,-22.96000099182129,23.59000015258789,151.97503662109375,-126.15713500976562,-190.9036102294922
3393,1720095564.740594,9.770243644714355,0.6460852026939392,2.0220072269439697,11.480000495910645,-9.869999885559082,3.849999904632568,168.27015686035156,-222.3868865966797,167.7672882080078,2.072258472442627,-8.095208168029785,5.094501495361328,-50.119998931884766,12.880000114440918,-37.380001068115234,29.55000114440918,2.400000095367432,-7.950000286102295,9.971247673034668,1.239526391029358,1.9765421152114868,26.809999465942383,16.59000015258789,22.75,28.413692474365234,-164.63783264160156,-104.65489959716795,2.759022951126098,5.625726699829102,6.915504455566406,-10.010000228881836,16.8700008392334,-9.449999809265137,59.92646408081055,-151.50209045410156,120.63844299316406,6.178488731384277,-7.351013660430908,3.1586387157440186,33.810001373291016,-22.46999931335449,23.030000686645508,151.91896057128906,-125.88915252685548,-191.4164886474609
3394,1720095564.740213,9.858781814575195,0.4761887192726135,1.799466848373413,12.25,-7.699999809265137,3.150000095367432,170.5204315185547,-220.06069946289065,172.5103302001953,1.9765421152114868,-9.2725191116333,5.027499675750732,-67.12999725341797,11.0600004196167,-33.7400016784668,29.700000762939453,2.400000095367432,-7.350000381469727,9.753493309020996,1.0863802433013916,1.9310768842697144,29.049999237060547,16.729999542236328,21.6299991607666,30.546236038208008,-162.33641052246094,-103.42011260986328,3.070101022720337,6.621176719665527,7.319905757904053,-8.890000343322754,10.289999961853027,-9.3100004196167,59.92646408081055,-151.50209045410156,120.63844299316406,6.006199359893799,-6.877217769622803,3.362035751342773,31.56999969482422,-21.489999771118164,22.32999992370605,153.5209503173828,-124.02267456054688,-189.83468627929688
3395,1720095564.765854,9.8444242477417,0.3900440335273742,1.6367491483688354,12.390000343322754,-3.430000066757202,3.5,170.47027587890625,-222.99131774902344,170.5893096923828,1.7875022888183594,-9.351485252380373,5.015535354614258,-58.2400016784668,10.989999771118164,-30.65999984741211,30.000001907348636,1.6500000953674316,-7.950000286102295,9.703242301940918,1.208418607711792,1.93586266040802,26.11000061035156,18.270000457763672,19.670000076293945,31.196216583251957,-164.3156280517578,-104.47624206542967,3.917190551757813,7.245725631713867,7.944454669952393,-8.050000190734863,6.789999961853027,-10.010000228881836,59.92646408081055,-151.50209045410156,120.63844299316406,5.881768226623535,-6.278990745544434,3.740115404129028,30.8700008392334,-22.61000061035156,18.6200008392334,154.40811157226562,-127.9104461669922,-191.93165588378903
3396,1720095564.7403347,9.889888763427734,0.3350071310997009,1.7324655055999756,13.15999984741211,-3.430000066757202,3.7100000381469727,169.95176696777344,-220.78343200683597,170.56361389160156,1.7922881841659546,-9.55009651184082,4.737957954406738,-34.22999954223633,8.329999923706055,-24.850000381469727,30.150001525878903,1.6500000953674316,-7.350000381469727,9.887495994567873,1.148595929145813,2.388122320175171,24.21999931335449,19.040000915527344,16.729999542236328,30.961990356445312,-164.00637817382812,-104.13948059082033,4.118195056915283,7.075829029083252,8.351249694824219,-5.949999809265137,12.739999771118164,-11.550000190734863,59.92646408081055,-151.50209045410156,120.63844299316406,6.223953723907471,-6.037307262420654,3.725757837295532,24.920000076293945,-21.06999969482422,15.960000038146973,153.00274658203125,-126.0549087524414,-189.91107177734372
3397,1720095564.7659757,,,,,,,,,,1.4189945459365845,-8.580968856811523,3.747294187545776,-17.850000381469727,4.059999942779541,-19.11000061035156,29.850000381469727,1.5,-8.100000381469727,9.736742973327637,0.9739136099815368,2.4623024463653564,30.8700008392334,21.21000099182129,16.170000076293945,30.39713859558105,-165.76866149902344,-104.44808959960938,3.823867082595825,6.262240409851074,8.123923301696777,7.070000171661377,18.82999992370605,-13.93000030517578,59.92646408081055,-151.50209045410156,120.63844299316406,6.252668857574463,-6.152166843414307,3.773616075515747,12.460000038146973,-16.59000015258789,13.789999961853027,151.95457458496094,-123.24138641357422,-191.08755493164065
3398,1720095564.740363,9.916211128234863,0.4283305406570434,1.6534994840621948,12.600000381469728,-5.599999904632568,3.3600001335144043,169.1497344970703,-220.63714599609372,171.29583740234375,1.7372512817382812,-9.394556999206545,3.0102784633636475,-31.850000381469727,-0.9800000190734864,-12.18000030517578,30.450000762939453,0.9000000357627869,-7.050000190734863,9.796566009521484,1.1557745933532717,2.325906753540039,38.9900016784668,21.489999771118164,14.06999969482422,29.163036346435547,-165.83555603027344,-105.4329833984375,3.3835721015930176,5.999020576477051,7.738664627075195,19.950000762939453,24.290000915527344,-17.850000381469727,59.92646408081055,-151.50209045410156,120.63844299316406,6.343599319458008,-6.472816467285156,3.653970718383789,0.1400000005960464,-14.140000343322754,12.529999732971191,151.45950317382812,-125.54853057861328,-191.6333923339844
3399,1720095564.7660038,9.81810188293457,0.4953319728374481,1.847325086593628,11.899999618530272,-2.6600000858306885,3.7799999713897705,171.80374145507812,-222.1429443359375,171.8522491455078,2.151224374771118,-9.27969741821289,3.2376046180725098,-48.790000915527344,-2.6600000858306885,-16.940000534057617,32.400001525878906,0.3000000119209289,-6.750000476837158,9.504631042480469,1.275420069694519,2.156010150909424,45.5,20.51000022888184,10.010000228881836,26.838787078857425,-162.81797790527344,-107.68621826171876,3.3141777515411377,6.396243095397949,8.04734992980957,28.559999465942383,23.799999237060547,-24.43000030517578,59.92646408081055,-151.50209045410156,120.63844299316406,6.410600662231445,-6.401029109954834,4.003335475921631,-4.409999847412109,-12.600000381469728,8.1899995803833,152.30043029785156,-128.886474609375,-192.79147338867188
3400,1720095564.7404428,9.8085298538208,0.5288326740264893,1.7970739603042605,10.289999961853027,0.4200000166893005,5.039999961853027,172.67039489746094,-223.59576416015625,173.41131591796875,1.32806396484375,-7.796094417572021,3.61089825630188,-53.060001373291016,0.9800000190734864,-18.96999931335449,30.600000381469727,2.25,-7.200000286102295,9.46155834197998,1.517103672027588,1.9813278913497925,47.52999877929688,19.670000076293945,5.110000133514404,29.562129974365234,-165.6293182373047,-104.69816589355467,3.7209720611572266,7.188295841217041,7.954026699066162,31.149999618530277,24.43000030517578,-31.149999618530277,59.92646408081055,-151.50209045410156,120.63844299316406,6.441708564758301,-6.535031795501709,4.388593673706055,-5.599999904632568,-8.819999694824219,4.130000114440918,153.56924438476562,-127.2123565673828,-189.9798583984375
3401,1720095564.7660837,9.892282485961914,0.3732936680316925,1.5338541269302368,8.539999961853027,1.0499999523162842,3.920000076293945,169.28929138183594,-221.72689819335935,170.82135009765625,1.5673547983169556,-8.911190032958984,3.864546537399292,-45.220001220703125,2.380000114440918,-16.799999237060547,31.500001907348636,1.8000000715255735,-5.550000190734863,9.339520454406738,1.619998812675476,2.110544919967652,50.04999923706055,18.549999237060547,-1.2599999904632568,27.6767578125,-164.55661010742188,-108.14021301269533,3.7999379634857178,6.590068817138672,8.23878288269043,39.7599983215332,31.21999931335449,-40.52999877929688,59.92646408081055,-151.50209045410156,120.63844299316406,6.889182567596436,-6.618783950805664,4.623098373413086,-6.510000228881836,-0.2800000011920929,1.680000066757202,151.97842407226562,-127.4765625,-190.4365997314453
3402,1720095564.74047,9.987998008728027,0.6580497026443481,1.42378032207489,11.0600004196167,-0.6299999952316284,1.680000066757202,168.5334930419922,-222.1304473876953,170.6147003173828,2.055508136749268,-9.102622032165527,4.455595016479492,-24.920000076293945,1.5399999618530271,-12.739999771118164,30.450000762939453,0.1500000059604644,-5.850000381469727,9.186373710632324,1.916719436645508,2.0626866817474365,50.88999938964844,16.100000381469727,-6.369999885559082,26.38446617126465,-162.19650268554688,-106.5916976928711,3.345285415649414,5.357721328735352,7.78652286529541,71.26000213623047,41.720001220703125,-52.9900016784668,59.92646408081055,-151.50209045410156,120.63844299316406,6.870038986206055,-6.441708564758301,4.582418918609619,-4.690000057220459,10.56999969482422,-2.450000047683716,153.78976440429688,-127.24471282958984,-189.56651306152344
3403,1720095564.766111,10.12200164794922,0.5551546812057495,1.7875022888183594,7.699999809265137,-0.1400000005960464,-0.4200000166893005,171.8455810546875,-226.93389892578125,170.72232055664062,1.8640754222869875,-9.39216423034668,4.38380765914917,-3.0799999237060547,-4.619999885559082,-9.029999732971191,30.450000762939453,0.75,-4.650000095367432,9.0978364944458,2.3450498580932617,1.8856115341186523,50.540000915527344,12.460000038146973,-12.460000038146973,27.6767578125,-164.55661010742188,-108.14021301269533,2.172760486602783,5.436686992645264,6.872432231903076,103.11000061035156,52.77999877929688,-71.81999969482422,59.92646408081055,-151.50209045410156,120.63844299316406,7.011220932006836,-5.886553764343262,4.867175102233887,1.3300000429153442,15.329999923706056,-10.989999771118164,152.798095703125,-124.4192886352539,-189.05902099609372
3404,1720095564.7405698,9.918603897094728,0.746587336063385,1.8592896461486816,8.399999618530273,3.7100000381469727,-2.940000057220459,171.25904846191406,-222.5808258056641,171.7782745361328,2.2230117321014404,-9.48788070678711,4.058372020721436,20.93000030517578,-8.470000267028809,-10.359999656677246,30.900001525878903,0.75,-4.050000190734863,8.83700942993164,2.433587551116944,1.890397429466248,45.84999847412109,8.329999923706055,-18.059999465942383,29.422475814819336,-168.57876586914062,-109.28546142578124,1.543425679206848,6.329241752624512,6.525460243225098,131.80999755859375,56.209999084472656,-84.41999816894531,59.92646408081055,-151.50209045410156,120.63844299316406,7.152402400970459,-5.58983325958252,4.161267280578613,1.75,22.26000022888184,-21.770000457763672,153.42201232910156,-124.5242919921875,-188.94163513183597
3405,1720095564.7662108,9.889888763427734,0.7896596789360046,1.876039981842041,4.059999942779541,5.809999942779541,-4.340000152587891,170.10458374023438,-222.91075134277344,172.00790405273438,3.4051082134246826,-7.130866050720215,3.68029260635376,21.13999938964844,0.4200000166893005,-15.470000267028809,30.750001907348636,-0.4500000178813934,-4.800000190734863,8.93272590637207,2.7446656227111816,1.5888910293579102,42.4900016784668,2.799999952316284,-24.920000076293945,31.032665252685547,-163.51071166992188,-105.87451171875,1.3137065172195437,6.829359531402588,6.085165500640869,159.52999877929688,59.84999847412109,-93.4499969482422,59.92646408081055,-151.50209045410156,120.63844299316406,7.018399238586426,-6.133023262023926,3.589362144470215,-7.490000247955322,24.63999938964844,-28.489999771118164,149.69920349121094,-121.8092269897461,-192.08023071289065
3406,1720095564.740619,9.88031768798828,0.93323415517807,1.6032484769821167,0.0700000002980232,10.289999961853027,-5.320000171661377,169.6489715576172,-223.12887573242188,169.58912658691406,2.567590475082397,-8.207674980163574,6.039700031280518,6.860000133514404,17.920000076293945,-15.890000343322754,31.80000114440918,0.3000000119209289,-5.550000190734863,9.078693389892578,2.8355960845947266,1.3759222030639648,35.13999938964844,-2.799999952316284,-30.450000762939453,28.191553115844727,-161.2049560546875,-108.53083038330078,0.7178724408149719,8.22921085357666,5.63290548324585,179.5500030517578,64.19000244140625,-107.4499969482422,59.92646408081055,-151.50209045410156,120.63844299316406,7.34383487701416,-6.771929740905762,3.508003234863281,-19.670000076293945,25.96999931335449,-27.51000022888184,156.5157928466797,-126.93441009521484,-191.0718231201172
3407,1720095564.7664628,9.66016960144043,0.952377438545227,1.6774286031723022,-10.079999923706056,11.199999809265137,-5.599999904632568,166.83050537109375,-221.85870361328125,169.13223266601562,,,,,,,,,,9.18398094177246,2.6896286010742188,1.5769264698028564,32.34000015258789,-7.210000038146973,-34.720001220703125,29.557880401611328,-164.86964416503906,-107.50737762451172,0.0598227009177207,9.30601978302002,4.388593673706055,181.44000244140625,66.98999786376953,-123.62000274658205,59.92646408081055,-151.50209045410156,120.63844299316406,6.965755462646484,-6.5733184814453125,3.7688302993774414,-16.3799991607666,27.790000915527344,-27.649999618530277,152.41873168945312,-123.58101654052734,-190.7303009033203
3408,1720095564.740696,9.655384063720703,0.7872667908668518,1.8640754222869875,-16.3799991607666,5.110000133514404,-6.019999980926514,171.2770233154297,-223.13661193847656,169.99740600585938,2.541268348693848,-10.320612907409668,5.39122200012207,13.440000534057615,23.239999771118164,-17.5,31.05000114440918,0.75,-4.950000286102295,9.093050956726074,2.6537351608276367,1.5506044626235962,37.02999877929688,-10.640000343322754,-36.470001220703125,26.73221206665039,-161.240478515625,-110.06939697265624,-1.1916682720184326,10.519224166870115,3.682685613632202,162.1199951171875,70.41999816894531,-133.49000549316406,59.92646408081055,-151.50209045410156,120.63844299316406,6.738429069519043,-6.054057598114014,3.74968695640564,-11.550000190734863,28.06999969482422,-33.810001373291016,153.14410400390625,-125.0635757446289,-193.38113403320312
3409,1720095564.766337,9.813316345214844,0.6963362693786621,1.8616825342178345,-17.149999618530273,3.7799999713897705,-6.789999961853027,171.57247924804688,-223.4329833984375,171.48492431640625,2.950455665588379,-11.105486869812012,4.883925437927246,43.18999862670898,25.34000015258789,-22.88999938964844,31.350000381469727,1.8000000715255735,-3.900000095367432,9.076300621032717,2.782952070236206,1.3424214124679563,40.95000076293945,-14.0,-39.83000183105469,30.231088638305664,-162.60377502441406,-107.81114959716795,-1.7922881841659546,10.741764068603516,3.54150390625,136.77999877929688,70.3499984741211,-133.77000427246094,59.92646408081055,-151.50209045410156,120.63844299316406,6.913111686706543,-5.673584938049316,3.302213191986084,-19.950000762939453,27.790000915527344,-39.47999954223633,154.3490447998047,-126.04315948486328,-191.7404327392578
