relative_id,timestamp,CHS_IMU9_Acc_X,CHS_IMU9_Acc_Y,CHS_IMU9_Acc_Z,CHS_IMU9_Gyro_X,CHS_IMU9_Gyro_Y,CHS_IMU9_Gyro_Z,CHS_IMU9_Magn_X,CHS_IMU9_Magn_Y,CHS_IMU9_Magn_Z,RF_IMU9_Acc_X,RF_IMU9_Acc_Y,RF_IMU9_Acc_Z,RF_IMU9_Gyro_X,RF_IMU9_Gyro_Y,RF_IMU9_Gyro_Z,RF_IMU9_Magn_X,RF_IMU9_Magn_Y,RF_IMU9_Magn_Z,LU_IMU9_Acc_X,LU_IMU9_Acc_Y,LU_IMU9_Acc_Z,LU_IMU9_Gyro_X,LU_IMU9_Gyro_Y,LU_IMU9_Gyro_Z,LU_IMU9_Magn_X,LU_IMU9_Magn_Y,LU_IMU9_Magn_Z,LF_IMU9_Acc_X,LF_IMU9_Acc_Y,LF_IMU9_Acc_Z,LF_IMU9_Gyro_X,LF_IMU9_Gyro_Y,LF_IMU9_Gyro_Z,LF_IMU9_Magn_X,LF_IMU9_Magn_Y,LF_IMU9_Magn_Z,RU_IMU9_Acc_X,RU_IMU9_Acc_Y,RU_IMU9_Acc_Z,RU_IMU9_Gyro_X,RU_IMU9_Gyro_Y,RU_IMU9_Gyro_Z,RU_IMU9_Magn_X,RU_IMU9_Magn_Y,RU_IMU9_Magn_Z
5212,1720095588.6240551,9.085871696472168,-0.181861013174057,3.247176170349121,-5.670000076293945,0.4900000095367431,-2.870000123977661,169.93722534179688,-220.58547973632807,165.1315460205078,4.434058666229248,-7.121294498443604,5.649655818939209,-0.4900000095367431,-1.4700000286102295,-1.399999976158142,45.30000305175781,11.25,-22.80000114440918,9.47830867767334,2.4144442081451416,1.799466848373413,1.0499999523162842,-0.2100000083446502,4.130000114440918,29.63299369812012,-156.57443237304688,-100.1496124267578,3.42903733253479,6.594854831695557,6.551782131195068,-0.2800000011920929,-0.2100000083446502,0.4900000095367431,59.92646408081055,-151.50209045410156,120.63844299316406,9.349091529846191,-2.775773286819458,1.229954719543457,-1.399999976158142,2.0299999713897705,2.5899999141693115,160.6273193359375,-98.44390106201172,-187.4508209228516
5213,1720095588.649696,9.39216423034668,-0.3182567656040191,2.8260245323181152,-3.0799999237060547,-2.5199999809265137,-0.2800000011920929,169.45333862304688,-221.2903594970703,165.7107696533203,4.3957719802856445,-7.020792484283447,5.604190826416016,-0.3499999940395355,-1.5399999618530271,-1.4700000286102295,44.70000076293945,10.65000057220459,-21.450000762939453,9.504631042480469,2.3976938724517822,1.7946810722351074,0.2100000083446502,-0.5600000023841858,4.269999980926514,30.125423431396484,-156.90811157226562,-98.9503936767578,3.4122869968414307,6.602033615112305,6.539817810058594,-0.2100000083446502,-0.1400000005960464,0.4200000166893005,59.92646408081055,-151.50209045410156,120.63844299316406,9.468737602233888,-2.3785505294799805,1.847325086593628,-0.9100000262260436,-0.2100000083446502,0.9100000262260436,162.27938842773438,-97.68600463867188,-189.009765625
5214,1720095592.463108,9.629061698913574,-0.1866468340158462,2.806881189346313,0.0,-3.849999904632568,0.1400000005960464,168.86668395996094,-221.4572906494141,165.54490661621094,4.410129547119141,-7.018399238586426,5.649655818939209,-0.9100000262260436,-1.6100000143051147,-1.5399999618530271,42.150001525878906,10.200000762939451,-22.05000114440918,9.614705085754396,1.986113667488098,1.6391420364379885,0.0700000002980232,-0.0700000002980232,1.1200000047683716,28.663557052612305,-155.06448364257812,-98.61378479003906,3.381179094314575,6.647498607635498,6.563746929168701,-0.0700000002980232,-0.1400000005960464,0.4200000166893005,59.92646408081055,-151.50209045410156,120.63844299316406,9.507023811340332,-2.354621648788452,1.8640754222869875,-1.190000057220459,-0.1400000005960464,0.9800000190734864,161.4995880126953,-98.3743896484375,-191.08917236328125
5215,1720095592.488749,9.463951110839844,-0.3469716608524322,2.797309637069702,1.4700000286102295,-2.5899999141693115,0.2800000011920929,168.4025115966797,-221.1176605224609,165.1876678466797,4.438844680786133,-7.147616386413574,5.6879425048828125,-1.190000057220459,-1.680000066757202,-1.399999976158142,43.80000305175781,12.750000953674316,-21.900001525878903,9.633848190307615,1.964577555656433,1.672642707824707,-0.4200000166893005,0.0700000002980232,1.3300000429153442,29.113489151000977,-159.92709350585938,-99.89933013916016,3.381179094314575,6.652284622192383,6.499138355255127,-0.0700000002980232,0.0700000002980232,0.6299999952316284,59.92646408081055,-151.50209045410156,120.63844299316406,9.617097854614258,-2.368978977203369,1.880825757980347,-1.75,0.2100000083446502,1.0499999523162842,161.24781799316406,-97.22947692871094,-187.80044555664065
5216,1720095592.4833958,9.435236930847168,-0.2632198929786682,2.7446656227111816,3.990000009536743,-5.179999828338623,0.0700000002980232,170.76356506347656,-224.68707275390625,166.22134399414062,4.400557994842529,-7.071043491363525,5.673584938049316,-0.699999988079071,-1.8200000524520876,-1.4700000286102295,43.20000076293945,11.25,-23.100000381469727,9.602740287780762,1.966970443725586,1.710929274559021,-0.7699999809265137,0.2100000083446502,1.4700000286102295,29.87454032897949,-154.72267150878906,-97.1594467163086,3.4098939895629883,6.647498607635498,6.532639026641846,-0.2100000083446502,0.0700000002980232,0.699999988079071,59.92646408081055,-151.50209045410156,120.63844299316406,9.595561027526855,-2.4264087677001958,1.9334697723388672,-2.799999952316284,0.6299999952316284,0.9100000262260436,159.64805603027344,-96.73500061035156,-191.2067108154297
5217,1720095592.5090368,9.554882049560549,-0.3134709596633911,2.91695499420166,3.7799999713897705,-6.019999980926514,-0.3499999940395355,169.79417419433594,-222.69630432128903,163.91720581054688,4.441237449645996,-7.020792484283447,5.592226028442383,-0.1400000005960464,-1.8200000524520876,-1.399999976158142,44.55000305175781,11.25,-21.450000762939453,9.55727481842041,1.9191123247146609,1.7324655055999756,-0.4200000166893005,0.1400000005960464,1.4700000286102295,28.25843048095703,-156.59213256835938,-99.16223907470705,3.3979294300079346,6.64031982421875,6.539817810058594,-0.5600000023841858,-0.0700000002980232,0.5600000023841858,59.92646408081055,-151.50209045410156,120.63844299316406,9.535738945007324,-2.3976938724517822,1.9143264293670652,-2.7300000190734863,0.4900000095367431,0.6299999952316284,163.7172393798828,-100.29527282714844,-187.379150390625
5218,1720095592.534678,,,,,,,,,,4.429272651672363,-6.989684581756592,5.628119945526123,-0.2100000083446502,-1.6100000143051147,-1.4700000286102295,44.400001525878906,11.40000057220459,-21.150001525878903,9.578810691833496,1.986113667488098,1.7157150506973269,-0.699999988079071,-0.1400000005960464,1.2599999904632568,28.582061767578125,-160.92173767089844,-101.8945083618164,3.42903733253479,6.602033615112305,6.599640369415283,-0.6299999952316284,-0.1400000005960464,0.4900000095367431,59.92646408081055,-151.50209045410156,120.63844299316406,9.466344833374023,-2.4503378868103027,1.93586266040802,-1.3300000429153442,0.0700000002980232,0.699999988079071,159.88270568847656,-96.7643814086914,-190.37237548828125
5219,1720095592.560319,9.595561027526855,-0.2321120798587799,2.86431097984314,3.920000076293945,-3.3600001335144043,-0.9100000262260436,171.21800231933594,-220.78854370117188,166.3486328125,4.419701099395752,-6.977719783782959,5.608976364135742,-0.9100000262260436,-1.5399999618530271,-1.399999976158142,44.55000305175781,12.300000190734863,-20.400001525878903,9.485487937927246,1.916719436645508,1.6870001554489136,-1.3300000429153442,-0.2100000083446502,1.0499999523162842,28.537572860717773,-158.77163696289062,-100.1112060546875,3.4314301013946533,6.602033615112305,6.5733184814453125,-0.5600000023841858,-0.2100000083446502,0.699999988079071,59.92646408081055,-151.50209045410156,120.63844299316406,9.48788070678711,-2.445552110671997,1.9310768842697144,-0.1400000005960464,-0.2100000083446502,1.2599999904632568,162.18002319335938,-98.46749114990234,-189.28781127929688
5220,1720095592.5634909,9.516595840454102,-0.2345049977302551,2.804488182067871,2.450000047683716,-1.190000057220459,-0.7699999809265137,171.3764190673828,-221.87432861328125,166.4354705810547,4.491488456726074,-7.018399238586426,5.640084266662598,-1.4700000286102295,-1.190000057220459,-1.3300000429153442,43.05000305175781,11.25,-22.5,9.463951110839844,1.8616825342178345,1.6367491483688354,-0.9100000262260436,-0.2800000011920929,1.190000057220459,31.188627243041992,-158.67811584472656,-98.85071563720705,3.448180675506592,6.645105838775635,6.568532943725586,-0.2800000011920929,-0.4200000166893005,0.5600000023841858,59.92646408081055,-151.50209045410156,120.63844299316406,9.47830867767334,-2.4072654247283936,1.928683876991272,0.4900000095367431,-0.3499999940395355,1.8200000524520876,160.88893127441406,-99.30695343017578,-189.28778076171875
5221,1720095592.5891318,9.530953407287598,-0.1938255578279495,2.775773286819458,2.5199999809265137,-2.0299999713897705,-0.5600000023841858,170.7816619873047,-220.72283935546875,165.6622772216797,4.457987785339356,-7.092579364776611,5.644870281219482,-1.1200000047683716,-1.3300000429153442,-1.3300000429153442,43.5,10.950000762939451,-23.55000114440918,9.588382720947266,1.9119335412979128,1.5769264698028564,-0.5600000023841858,-0.4200000166893005,1.3300000429153442,31.89983367919922,-160.6444549560547,-98.08255767822266,3.457752227783203,6.585283279418945,6.523067474365234,0.0700000002980232,-0.4200000166893005,0.4900000095367431,59.92646408081055,-151.50209045410156,120.63844299316406,9.542917251586914,-2.3570144176483154,1.955005884170532,0.2800000011920929,-0.1400000005960464,1.8899999856948853,161.89573669433594,-96.56885528564452,-189.65028381347656
5222,1720095592.614773,9.593168258666992,-0.260826975107193,2.814059972763061,2.309999942779541,-2.6600000858306885,-0.699999988079071,167.6822052001953,-223.3934631347656,164.08815002441406,4.5010600090026855,-7.109330177307129,5.647263050079346,-0.699999988079071,-1.6100000143051147,-1.5399999618530271,43.95000076293945,12.15000057220459,-22.05000114440918,9.585989952087402,1.916719436645508,1.5888910293579102,-0.9800000190734864,-0.1400000005960464,1.1200000047683716,27.823299407958984,-159.7259979248047,-101.39708709716795,3.4194657802581787,6.654677391052246,6.592461585998535,0.2800000011920929,-0.5600000023841858,0.5600000023841858,59.92646408081055,-151.50209045410156,120.63844299316406,9.4950590133667,-2.325906753540039,1.9215052127838133,-0.4900000095367431,0.0700000002980232,1.5399999618530271,160.15768432617188,-94.14500427246094,-189.06878662109372
5223,1720095592.640414,9.559667587280272,-0.2871489822864532,2.8212387561798096,2.240000009536743,-2.240000009536743,-0.7699999809265137,169.91236877441406,-221.91085815429688,164.75657653808594,4.448416233062744,-7.054293155670166,5.652049064636231,-0.699999988079071,-1.399999976158142,-1.6100000143051147,43.35000228881836,12.300000190734863,-20.100000381469727,9.629061698913574,1.90954065322876,1.6032484769821167,-0.9100000262260436,0.2800000011920929,1.1200000047683716,28.15139579772949,-155.7753143310547,-98.87654113769533,3.457752227783203,6.637927055358887,6.599640369415283,0.2100000083446502,-0.8400000333786011,0.2800000011920929,59.92646408081055,-151.50209045410156,120.63844299316406,9.51180934906006,-2.3354783058166504,1.8999689817428589,-1.3300000429153442,0.3499999940395355,1.2599999904632568,161.41226196289062,-96.99385833740234,-187.89996337890625
5224,1720095607.6839278,9.54052448272705,-0.3062922358512878,2.8355960845947266,1.8899999856948853,-2.1700000762939453,-0.699999988079071,169.6352996826172,-222.3711853027344,166.49925231933594,4.386200428009033,-7.047114372253418,5.685549736022949,-0.5600000023841858,-1.3300000429153442,-1.75,43.80000305175781,10.350000381469728,-21.600000381469727,9.55727481842041,1.907147765159607,1.6463208198547363,-0.2100000083446502,0.2800000011920929,1.2599999904632568,30.29061889648437,-160.63275146484375,-97.92951965332033,3.4314301013946533,6.55417537689209,6.587676048278809,0.6299999952316284,-0.8400000333786011,0.0,59.92646408081055,-151.50209045410156,120.63844299316406,9.53334617614746,-2.4120514392852783,1.9334697723388672,-1.680000066757202,0.4200000166893005,1.190000057220459,159.38992309570312,-92.6713638305664,-187.6809234619141
5225,1720095607.684315,9.57402515411377,-0.27997025847435,2.663306713104248,3.430000066757202,-2.309999942779541,-0.5600000023841858,169.95433044433594,-222.1818084716797,164.84844970703125,4.400557994842529,-7.121294498443604,5.697514057159424,-0.0700000002980232,-1.680000066757202,-1.9600000381469729,44.25,12.300000190734863,-20.850000381469727,9.542917251586914,1.904754877090454,1.6343562602996826,0.4900000095367431,-0.0700000002980232,1.1200000047683716,31.87671661376953,-160.36953735351562,-97.61311340332033,3.4386088848114014,6.590068817138672,6.489566802978516,1.2599999904632568,-0.5600000023841858,-0.1400000005960464,59.92646408081055,-151.50209045410156,120.63844299316406,9.559667587280272,-2.445552110671997,1.9526129961013796,-1.4700000286102295,0.1400000005960464,1.1200000047683716,161.13861083984375,-98.2928237915039,-189.53024291992188
5226,1720095607.684239,9.45438003540039,-0.2129688262939453,2.9815635681152344,3.0799999237060547,-3.990000009536743,-0.3499999940395355,169.79031372070312,-222.13754272460935,166.11907958984375,4.402950763702393,-7.020792484283447,5.6879425048828125,0.0,-1.9600000381469729,-2.0299999713897705,43.05000305175781,10.350000381469728,-23.55000114440918,9.535738945007324,1.9238981008529663,1.6582852602005005,0.699999988079071,-0.6299999952316284,0.8400000333786011,28.773550033569336,-157.48060607910156,-99.6035614013672,3.4194657802581787,6.616390705108643,6.515888690948486,1.4700000286102295,-0.2100000083446502,-0.1400000005960464,59.92646408081055,-151.50209045410156,120.63844299316406,9.490273475646973,-2.4192299842834477,1.9597917795181277,-0.6299999952316284,-0.0700000002980232,0.9100000262260436,161.19776916503906,-95.64009857177734,-188.49966430664065
5227,1720095607.6841338,9.600347518920898,-0.2225404530763626,2.730308055877685,5.880000114440918,-1.8200000524520876,-0.5600000023841858,168.86196899414062,-221.45828247070312,165.4045867919922,4.414915561676025,-7.073436260223389,5.623333930969238,-0.0700000002980232,-2.380000114440918,-2.0299999713897705,43.5,12.0,-21.600000381469727,9.523774147033691,1.86646831035614,1.6534994840621948,-0.1400000005960464,-0.5600000023841858,0.8400000333786011,28.08753204345703,-158.4290313720703,-100.0474624633789,3.4098939895629883,6.738429069519043,6.484780788421631,0.8400000333786011,0.0700000002980232,0.0700000002980232,59.92646408081055,-151.50209045410156,120.63844299316406,9.480701446533203,-2.435980319976806,1.945434331893921,-0.4200000166893005,-0.3499999940395355,0.9800000190734864,160.56784057617188,-96.85649871826172,-188.43069458007807
5228,1720095607.684208,9.514202117919922,-0.2584340870380401,2.739879846572876,4.550000190734863,-0.8400000333786011,-0.4200000166893005,169.6469268798828,-220.0082550048828,164.9554443359375,4.484309673309326,-7.11890172958374,5.587440490722656,0.0700000002980232,-2.309999942779541,-1.75,44.55000305175781,11.550000190734863,-21.900001525878903,9.571632385253906,1.9119335412979128,1.6271774768829346,-0.699999988079071,-0.5600000023841858,0.9800000190734864,30.339923858642575,-158.2618865966797,-98.35069274902344,3.3979294300079346,6.77910852432251,6.551782131195068,0.0,0.0,0.4200000166893005,59.92646408081055,-151.50209045410156,120.63844299316406,9.55727481842041,-2.4288017749786377,1.9597917795181277,-0.6299999952316284,0.2100000083446502,1.1200000047683716,159.93833923339844,-97.79302978515624,-187.1906280517578
5229,1720095607.6844428,9.502238273620604,-0.2249333560466766,2.7853450775146484,4.269999980926514,-1.2599999904632568,-0.2100000083446502,168.95191955566406,-220.6787872314453,165.4019775390625,4.414915561676025,-7.0160064697265625,5.570690155029297,0.0700000002980232,-2.1700000762939453,-1.5399999618530271,44.55000305175781,9.600000381469728,-20.400001525878903,9.564454078674316,1.8784328699111936,1.6415349245071411,-0.4200000166893005,-0.3499999940395355,0.9800000190734864,29.937435150146484,-157.148681640625,-99.55252075195312,3.4051082134246826,6.728857517242432,6.532639026641846,-0.5600000023841858,-0.2800000011920929,0.4900000095367431,59.92646408081055,-151.50209045410156,120.63844299316406,9.53334617614746,-2.4431591033935547,1.904754877090454,-0.6299999952316284,0.4200000166893005,1.0499999523162842,160.0352020263672,-94.65158081054688,-188.87738037109372
5230,1720095607.6843398,9.473523139953612,-0.2584340870380401,2.86431097984314,3.569999933242798,-2.0299999713897705,-0.2100000083446502,171.0796356201172,-222.89837646484372,165.27462768554688,4.474738121032715,-7.068650722503662,5.683156490325928,-0.2100000083446502,-2.0999999046325684,-1.4700000286102295,44.400001525878906,11.100000381469728,-22.80000114440918,9.597954750061035,1.9143264293670652,1.6247845888137815,0.2800000011920929,-0.4900000095367431,0.9100000262260436,29.18930435180664,-159.15054321289062,-100.32292938232422,3.4098939895629883,6.657070159912109,6.470423698425293,-0.699999988079071,-0.3499999940395355,0.5600000023841858,59.92646408081055,-151.50209045410156,120.63844299316406,9.516595840454102,-2.395301103591919,1.955005884170532,0.0700000002980232,0.1400000005960464,0.9800000190734864,158.94241333007812,-94.20794677734376,-189.4923553466797
5231,1720095607.6843648,9.51180934906006,-0.1938255578279495,2.8212387561798096,2.940000057220459,-1.9600000381469729,-0.4900000095367431,168.72711181640625,-220.36753845214844,166.01939392089844,4.467559337615967,-7.059078693389893,5.640084266662598,-0.4900000095367431,-1.8200000524520876,-1.4700000286102295,44.400001525878906,9.90000057220459,-21.450000762939453,9.581204414367676,1.93586266040802,1.6295703649520874,0.5600000023841858,-0.2800000011920929,0.7699999809265137,29.278038024902344,-155.17144775390625,-98.7770538330078,3.433823108673096,6.623569488525391,6.51110315322876,-0.4900000095367431,-0.1400000005960464,0.6299999952316284,59.92646408081055,-151.50209045410156,120.63844299316406,9.502238273620604,-2.366586208343506,1.9908995628356931,0.2800000011920929,0.0,1.2599999904632568,161.54669189453125,-98.36447143554688,-189.6858673095703
5232,1720095607.6842628,9.521381378173828,-0.1579319387674331,2.871489763259888,2.240000009536743,-1.4700000286102295,-0.4900000095367431,168.66160583496094,-220.1015472412109,165.2258758544922,4.434058666229248,-7.080615043640137,5.630512714385986,-0.699999988079071,-1.680000066757202,-1.399999976158142,43.05000305175781,11.40000057220459,-21.150001525878903,,,,,,,,,,3.4673237800598145,6.64031982421875,6.494352340698242,-0.1400000005960464,0.2100000083446502,0.4900000095367431,59.92646408081055,-151.50209045410156,120.63844299316406,9.51180934906006,-2.3785505294799805,1.916719436645508,0.0,-0.1400000005960464,1.4700000286102295,159.74313354492188,-95.67463684082033,-189.89788818359372
5233,1720095607.684672,9.585989952087402,-0.1770751923322677,2.8690967559814453,1.4700000286102295,-1.190000057220459,-0.4200000166893005,171.5549774169922,-221.6357421875,166.75694274902344,4.398165225982666,-7.027971267700195,5.620941162109375,-0.5600000023841858,-1.75,-1.5399999618530271,43.5,10.5,-23.100000381469727,9.535738945007324,1.9334697723388672,1.6582852602005005,0.699999988079071,-0.4200000166893005,0.699999988079071,33.6225471496582,-159.87167358398438,-97.53656005859376,3.414679765701294,6.664248943328857,6.477602005004883,0.1400000005960464,0.3499999940395355,0.4200000166893005,59.92646408081055,-151.50209045410156,120.63844299316406,9.509416580200195,-2.3211207389831543,1.8856115341186523,-0.6299999952316284,-0.2800000011920929,1.680000066757202,160.39988708496094,-100.29269409179688,-190.0200042724609
5234,1720095607.6845758,9.569239616394045,-0.2129688262939453,2.857132196426392,1.4700000286102295,-0.8400000333786011,-0.3499999940395355,169.79931640625,-222.4154357910156,165.2286376953125,4.434058666229248,-7.071043491363525,5.683156490325928,-0.4200000166893005,-2.0999999046325684,-1.75,43.5,11.850000381469728,-20.850000381469727,9.530953407287598,1.9406484365463257,1.6032484769821167,1.1200000047683716,-0.4900000095367431,0.699999988079071,30.29314613342285,-162.51193237304688,-99.80469512939452,3.4098939895629883,6.709714412689209,6.494352340698242,0.1400000005960464,0.2800000011920929,0.2800000011920929,59.92646408081055,-151.50209045410156,120.63844299316406,9.492666244506836,-2.340264081954956,1.8856115341186523,-1.1200000047683716,-0.3499999940395355,1.4700000286102295,157.8941192626953,-95.91442108154295,-191.890625
5235,1720095607.6844158,9.4950590133667,-0.2249333560466766,2.8499536514282227,1.75,-1.0499999523162842,-0.2100000083446502,169.35397338867188,-222.07183837890625,165.43270874023438,4.477130889892578,-7.073436260223389,5.604190826416016,-0.0700000002980232,-2.450000047683716,-1.680000066757202,43.35000228881836,11.550000190734863,-23.850000381469727,9.564454078674316,1.9478272199630735,1.6319633722305298,1.3300000429153442,-0.3499999940395355,0.7699999809265137,32.10031509399414,-157.48118591308594,-96.68204498291016,3.3979294300079346,6.721678733825684,6.544603824615479,-0.2800000011920929,0.3499999940395355,0.4200000166893005,59.92646408081055,-151.50209045410156,120.63844299316406,9.504631042480469,-2.325906753540039,1.916719436645508,-1.75,-0.2800000011920929,1.190000057220459,160.57211303710938,-97.13538360595705,-189.4614715576172
5236,1720095607.6843908,9.499845504760742,-0.2249333560466766,2.7925238609313965,1.9600000381469729,-1.190000057220459,-0.0700000002980232,167.61843872070312,-221.52716064453125,164.1390380859375,,,,,,,,,,9.648205757141112,1.9621846675872805,1.6295703649520874,0.699999988079071,-0.1400000005960464,0.9100000262260436,31.528568267822266,-161.12460327148438,-99.14649200439452,3.35964298248291,6.661856174468994,6.568532943725586,-0.4900000095367431,0.3499999940395355,0.4200000166893005,59.92646408081055,-151.50209045410156,120.63844299316406,9.504631042480469,-2.368978977203369,1.904754877090454,-2.1700000762939453,-0.4900000095367431,0.9100000262260436,160.59315490722656,-94.7704620361328,-190.724609375
5237,1720095607.6847198,9.507023811340332,-0.3062922358512878,2.806881189346313,2.0299999713897705,-1.399999976158142,0.0,168.89627075195312,-220.1309356689453,166.06021118164062,4.398165225982666,-7.008827686309815,5.704692840576172,0.2100000083446502,-2.1700000762939453,-1.4700000286102295,43.35000228881836,11.550000190734863,-19.650001525878903,9.629061698913574,1.986113667488098,1.6750357151031494,0.0700000002980232,0.1400000005960464,1.2599999904632568,28.50460433959961,-158.778564453125,-101.09351348876952,3.366821765899658,6.628355503082275,6.496745586395264,-0.3499999940395355,0.3499999940395355,0.4200000166893005,59.92646408081055,-151.50209045410156,120.63844299316406,9.547703742980955,-2.388122320175171,1.9215052127838133,-2.0999999046325684,-0.699999988079071,0.7699999809265137,159.74224853515625,-96.71517181396484,-188.40011596679688
5238,1720095607.684696,9.504631042480469,-0.1914326548576355,2.775773286819458,2.309999942779541,-1.680000066757202,-0.0700000002980232,169.9672393798828,-218.979248046875,166.81793212890625,4.457987785339356,-7.013613700866699,5.699907302856445,0.0700000002980232,-2.380000114440918,-1.5399999618530271,43.35000228881836,10.950000762939451,-21.75,9.600347518920898,1.97893500328064,1.6941789388656616,-0.0700000002980232,0.2800000011920929,1.3300000429153442,29.34650421142578,-157.03675842285156,-98.68760681152344,3.393143653869629,6.666641712188721,6.515888690948486,-0.1400000005960464,0.4900000095367431,0.5600000023841858,59.92646408081055,-151.50209045410156,120.63844299316406,9.523774147033691,-2.409658432006836,1.945434331893921,-1.680000066757202,-0.5600000023841858,0.8400000333786011,159.53408813476562,-98.28013610839844,-189.23687744140625
5239,1720095607.6846008,9.521381378173828,-0.2297191768884658,2.816452741622925,2.5899999141693115,-1.5399999618530271,0.0,171.4980010986328,-222.4082946777344,167.7418670654297,4.398165225982666,-7.047114372253418,5.652049064636231,-0.4200000166893005,-2.309999942779541,-1.399999976158142,43.95000076293945,12.300000190734863,-23.55000114440918,9.597954750061035,1.955005884170532,1.7252867221832275,0.0700000002980232,0.2100000083446502,1.190000057220459,29.01762580871582,-157.50799560546875,-98.48856353759766,3.364428758621216,6.714499950408936,6.520674705505371,-0.3499999940395355,0.4900000095367431,0.699999988079071,59.92646408081055,-151.50209045410156,120.63844299316406,9.516595840454102,-2.409658432006836,1.9621846675872805,-1.3300000429153442,-0.6299999952316284,1.0499999523162842,161.8134307861328,-99.42745971679688,-186.37142944335935
5240,1720095607.684521,9.530953407287598,-0.1890397369861602,2.8355960845947266,2.309999942779541,-0.9800000190734864,-0.0700000002980232,171.16574096679688,-221.56011962890625,167.47389221191406,4.484309673309326,-7.078222274780273,5.613762378692627,-0.4200000166893005,-2.5199999809265137,-1.399999976158142,44.85000228881836,10.800000190734863,-22.650001525878903,9.581204414367676,1.9765421152114868,1.6678569316864014,-0.0700000002980232,0.2800000011920929,0.9100000262260436,32.447601318359375,-157.2858428955078,-97.49085998535156,3.371607542037964,6.704928398132324,6.513495922088623,-0.9800000190734864,0.2800000011920929,0.8400000333786011,59.92646408081055,-151.50209045410156,120.63844299316406,9.530953407287598,-2.366586208343506,1.9215052127838133,-1.0499999523162842,-0.8400000333786011,1.2599999904632568,161.08470153808594,-96.14468383789062,-188.0276031494141
5241,1720095607.6847918,9.518988609313965,-0.1603248417377472,2.823631525039673,1.8899999856948853,-0.8400000333786011,-0.0700000002980232,168.75965881347656,-220.64047241210935,165.8306121826172,4.441237449645996,-6.984898567199707,5.575475692749023,-0.8400000333786011,-2.0299999713897705,-1.2599999904632568,42.0,10.65000057220459,-21.600000381469727,9.521381378173828,1.9693633317947388,1.6558923721313477,-0.7699999809265137,0.2800000011920929,0.7699999809265137,30.89699935913086,-159.4213104248047,-98.70013427734376,3.362035751342773,6.680999279022217,6.556568145751953,-1.3300000429153442,0.0,0.9100000262260436,59.92646408081055,-151.50209045410156,120.63844299316406,9.51180934906006,-2.3857293128967285,1.9765421152114868,-1.3300000429153442,-0.7699999809265137,1.5399999618530271,159.1132049560547,-96.89104461669922,-189.8289337158203
5242,1720095607.684816,9.535738945007324,-0.2105759084224701,2.840381860733032,1.6100000143051147,-0.699999988079071,0.0,169.6691436767578,-221.32369995117188,165.98377990722656,4.484309673309326,-7.068650722503662,5.635298728942871,-0.9800000190734864,-1.8899999856948853,-1.2599999904632568,43.5,10.350000381469728,-20.25,9.56684684753418,1.9310768842697144,1.6056413650512695,-1.4700000286102295,0.2100000083446502,0.699999988079071,30.415307998657227,-157.7652130126953,-99.94538879394533,3.3883578777313232,6.709714412689209,6.50153112411499,-1.0499999523162842,-0.2800000011920929,1.0499999523162842,59.92646408081055,-151.50209045410156,120.63844299316406,9.514202117919922,-2.424015998840332,1.9502201080322263,-1.8899999856948853,-0.7699999809265137,1.4700000286102295,159.27764892578125,-96.65542602539062,-189.92845153808597
5243,1720095607.6847668,,,,,,,,,,4.484309673309326,-7.109330177307129,5.606583595275879,-0.7699999809265137,-1.8200000524520876,-1.3300000429153442,44.55000305175781,10.050000190734863,-21.75,9.55727481842041,1.8856115341186523,1.5864980220794678,-1.399999976158142,0.2100000083446502,0.8400000333786011,28.922969818115234,-158.2884979248047,-98.62628173828124,3.376393318176269,6.669034957885742,6.590068817138672,-0.699999988079071,-0.4900000095367431,0.9100000262260436,59.92646408081055,-151.50209045410156,120.63844299316406,9.523774147033691,-2.4288017749786377,1.916719436645508,-1.9600000381469729,-0.3499999940395355,1.190000057220459,162.1212921142578,-100.84034729003906,-189.14730834960935
5244,1720095607.684625,9.502238273620604,-0.2105759084224701,2.809274196624756,1.75,-0.9100000262260436,0.0,169.29788208007812,-221.80386352539065,164.9198455810547,4.434058666229248,-7.111722946166992,5.625726699829102,-0.5600000023841858,-1.5399999618530271,-1.2599999904632568,44.85000228881836,12.0,-21.600000381469727,9.58359718322754,1.8999689817428589,1.584105134010315,-0.7699999809265137,0.3499999940395355,0.9800000190734864,29.430419921875,-157.5786590576172,-98.5038604736328,3.378786325454712,6.647498607635498,6.558960914611816,-0.4900000095367431,-0.7699999809265137,0.7699999809265137,59.92646408081055,-151.50209045410156,120.63844299316406,9.504631042480469,-2.459909439086914,1.907147765159607,-1.8200000524520876,-0.4200000166893005,0.9100000262260436,159.58164978027344,-97.50955963134766,-190.50245666503903
5245,1720095607.6849408,9.542917251586914,-0.284756064414978,2.878668546676636,1.9600000381469729,-1.0499999523162842,-0.1400000005960464,170.03997802734375,-221.1234130859375,165.87661743164062,4.434058666229248,-6.972934246063232,5.606583595275879,-0.6299999952316284,-1.399999976158142,-1.4700000286102295,43.05000305175781,10.350000381469728,-21.900001525878903,9.593168258666992,1.8880045413970947,1.6032484769821167,0.2100000083446502,0.4900000095367431,1.190000057220459,30.380239486694336,-155.61312866210938,-97.88142395019533,3.369214534759521,6.652284622192383,6.535031795501709,-0.2100000083446502,-0.8400000333786011,0.6299999952316284,59.92646408081055,-151.50209045410156,120.63844299316406,9.523774147033691,-2.409658432006836,1.90954065322876,-1.680000066757202,-0.699999988079071,0.9100000262260436,159.75901794433594,-94.07136535644533,-188.6324920654297
5246,1720095607.7105818,9.554882049560549,-0.2368979007005691,2.8284173011779785,2.5199999809265137,-0.5600000023841858,-0.1400000005960464,172.21054077148438,-223.05421447753903,168.18333435058594,4.400557994842529,-7.037542819976807,5.642477512359619,-0.9800000190734864,-1.2599999904632568,-1.2599999904632568,43.650001525878906,10.800000190734863,-22.950000762939453,9.569239616394045,1.9334697723388672,1.643927812576294,0.5600000023841858,0.5600000023841858,1.3300000429153442,27.883665084838867,-160.27285766601562,-101.9149932861328,3.400322437286377,6.661856174468994,6.578104496002197,-0.0700000002980232,-0.8400000333786011,0.6299999952316284,59.92646408081055,-151.50209045410156,120.63844299316406,9.514202117919922,-2.4407663345336914,1.9406484365463257,-1.5399999618530271,-0.8400000333786011,0.9800000190734864,158.41481018066406,-96.24215698242188,-189.8494110107422
5247,1720095607.684841,9.485487937927246,-0.2440766245126724,2.8978116512298584,2.380000114440918,-0.1400000005960464,-0.0700000002980232,171.3550567626953,-219.99913024902344,167.74932861328125,4.398165225982666,-7.030364036560059,5.6951212882995605,-1.2599999904632568,-1.5399999618530271,-1.2599999904632568,43.95000076293945,11.100000381469728,-22.650001525878903,9.528559684753418,1.928683876991272,1.651106595993042,0.4200000166893005,0.6299999952316284,1.399999976158142,31.02165985107422,-157.03457641601562,-96.8760223388672,3.4194657802581787,6.69296407699585,6.456066131591797,-0.2800000011920929,-0.7699999809265137,0.699999988079071,59.92646408081055,-151.50209045410156,120.63844299316406,9.552489280700684,-2.4623024463653564,1.9143264293670652,-1.4700000286102295,-0.5600000023841858,1.0499999523162842,160.10914611816406,-99.99533081054688,-191.36720275878903
5248,1720095607.684743,9.55009651184082,-0.2727915346622467,2.881061315536499,2.380000114440918,-0.0700000002980232,0.0700000002980232,171.86709594726562,-223.8083038330078,166.79029846191406,4.465166568756104,-7.063864707946777,5.675978183746338,-1.4700000286102295,-1.8200000524520876,-1.2599999904632568,43.80000305175781,9.75,-21.30000114440918,9.499845504760742,1.945434331893921,1.689393162727356,0.0,0.4900000095367431,1.3300000429153442,27.911924362182617,-160.26690673828125,-101.07301330566406,3.448180675506592,6.721678733825684,6.484780788421631,-0.9100000262260436,-0.6299999952316284,0.7699999809265137,59.92646408081055,-151.50209045410156,120.63844299316406,9.569239616394045,-2.4288017749786377,1.945434331893921,-1.5399999618530271,-0.2100000083446502,0.9800000190734864,160.68429565429688,-97.67133331298828,-188.43572998046875
5249,1720095607.6850688,9.492666244506836,-0.2464695274829864,2.881061315536499,2.6600000858306885,0.2800000011920929,0.0,168.2782745361328,-223.2245178222656,164.53465270996094,4.4867024421691895,-7.078222274780273,5.628119945526123,-1.2599999904632568,-2.0299999713897705,-1.1200000047683716,43.5,10.5,-21.900001525878903,9.588382720947266,1.9478272199630735,1.6487137079238892,-0.1400000005960464,0.2800000011920929,1.1200000047683716,31.096153259277344,-157.57846069335938,-96.97293090820312,3.378786325454712,6.690570831298828,6.51110315322876,-1.6100000143051147,-0.5600000023841858,0.9100000262260436,59.92646408081055,-151.50209045410156,120.63844299316406,9.547703742980955,-2.4407663345336914,1.974149227142334,-1.4700000286102295,0.0700000002980232,0.9800000190734864,162.67068481445312,-100.4014663696289,-188.93299865722656
5250,1720095607.7107098,9.514202117919922,-0.260826975107193,2.852346420288086,2.870000123977661,-0.3499999940395355,0.0700000002980232,171.77377319335938,-223.2683868408203,166.3258819580078,4.434058666229248,-7.051900386810303,5.599404811859131,-0.8400000333786011,-1.75,-1.190000057220459,43.80000305175781,10.200000762939451,-20.25,9.576417922973633,1.9215052127838133,1.6654640436172483,0.0,0.3499999940395355,0.9100000262260436,27.545473098754883,-156.22607421875,-100.77481079101562,3.4194657802581787,6.685785293579102,6.499138355255127,-1.8899999856948853,-0.5600000023841858,1.1200000047683716,59.92646408081055,-151.50209045410156,120.63844299316406,9.53334617614746,-2.4288017749786377,1.957398772239685,-1.190000057220459,0.2100000083446502,1.1200000047683716,160.3271484375,-98.14852142333984,-189.07867431640625
5251,1720095607.684994,9.502238273620604,-0.2368979007005691,2.9193477630615234,2.6600000858306885,-0.3499999940395355,0.2100000083446502,168.5219268798828,-223.5318145751953,164.4785614013672,4.405344009399414,-7.032756805419922,5.585047721862793,-0.9100000262260436,-1.8200000524520876,-1.190000057220459,43.5,12.0,-21.450000762939453,9.55727481842041,1.897576093673706,1.6750357151031494,0.4200000166893005,0.3499999940395355,0.8400000333786011,32.189720153808594,-161.5015411376953,-99.07755279541016,3.4122869968414307,6.6786065101623535,6.530246257781982,-2.0299999713897705,-0.4900000095367431,1.1200000047683716,59.92646408081055,-151.50209045410156,120.63844299316406,9.504631042480469,-2.4694812297821045,1.897576093673706,-0.9100000262260436,0.0700000002980232,1.1200000047683716,158.78860473632812,-97.64116668701172,-190.66065979003903
5252,1720095607.684866,9.502238273620604,-0.2536482512950897,2.938491106033325,2.240000009536743,0.3499999940395355,0.2100000083446502,169.28375244140625,-221.8068389892578,164.4988555908203,4.434058666229248,-7.049507141113281,5.661620616912842,-1.399999976158142,-1.75,-1.0499999523162842,43.650001525878906,11.25,-20.400001525878903,9.58359718322754,1.8951832056045528,1.6582852602005005,0.9100000262260436,0.4900000095367431,0.9100000262260436,27.00756072998047,-159.30282592773438,-99.9147491455078,3.378786325454712,6.611605167388916,6.561354160308838,-1.680000066757202,-0.4200000166893005,1.0499999523162842,59.92646408081055,-151.50209045410156,120.63844299316406,9.559667587280272,-2.4503378868103027,1.8832186460494995,-0.699999988079071,0.0,1.1200000047683716,163.84915161132812,-99.7867202758789,-187.2898712158203
5253,1720095607.685216,9.509416580200195,-0.2991135120391845,2.945669889450073,2.309999942779541,0.4900000095367431,0.3499999940395355,169.80401611328125,-222.41444396972656,165.36895751953125,4.357485771179199,-7.123687267303467,5.683156490325928,-1.3300000429153442,-1.75,-0.8400000333786011,43.5,11.100000381469728,-22.5,9.593168258666992,1.9478272199630735,1.6367491483688354,0.9800000190734864,0.6299999952316284,1.0499999523162842,27.842247009277344,-155.20204162597656,-99.6139678955078,3.452966451644897,6.606819152832031,6.527853488922119,-1.190000057220459,-0.4200000166893005,1.1200000047683716,59.92646408081055,-151.50209045410156,120.63844299316406,9.571632385253906,-2.380943536758423,1.897576093673706,-0.4900000095367431,0.0,0.9800000190734864,161.9856719970703,-95.7893524169922,-189.6528778076172
5254,1720095607.710857,9.468737602233888,-0.2727915346622467,2.9049904346466064,2.5199999809265137,0.7699999809265137,0.2800000011920929,170.246826171875,-220.87887573242188,167.04006958007812,4.434058666229248,-7.121294498443604,5.6951212882995605,-0.9100000262260436,-2.380000114440918,-0.9800000190734864,45.30000305175781,11.550000190734863,-22.200000762939453,9.564454078674316,1.957398772239685,1.6463208198547363,0.9800000190734864,0.699999988079071,1.1200000047683716,30.926576614379883,-158.09494018554688,-98.1848373413086,3.4122869968414307,6.613997936248779,6.530246257781982,-0.699999988079071,-0.4900000095367431,1.0499999523162842,59.92646408081055,-151.50209045410156,120.63844299316406,9.559667587280272,-2.3211207389831543,1.9143264293670652,-0.4900000095367431,0.0,0.7699999809265137,160.5160369873047,-96.86740112304688,-189.9743194580078
5255,1720095607.685119,9.502238273620604,-0.2943277060985565,2.8858470916748047,2.5199999809265137,0.5600000023841858,0.2100000083446502,167.7794952392578,-219.9721221923828,163.57249450683594,4.450809001922607,-7.106936931610107,5.647263050079346,-0.6299999952316284,-2.5199999809265137,-1.2599999904632568,42.900001525878906,10.950000762939451,-22.5,9.547703742980955,1.971756219863892,1.682214379310608,0.7699999809265137,0.4900000095367431,1.1200000047683716,30.322830200195312,-156.66555786132812,-98.0676040649414,3.3907508850097656,6.6714277267456055,6.558960914611816,-0.4900000095367431,-0.4200000166893005,0.9800000190734864,59.92646408081055,-151.50209045410156,120.63844299316406,9.535738945007324,-2.340264081954956,1.873647093772888,-0.7699999809265137,0.1400000005960464,0.8400000333786011,163.54042053222656,-98.93357849121094,-186.856201171875
5256,1720095607.68502,9.521381378173828,-0.3015064299106598,2.811666965484619,2.6600000858306885,1.5399999618530271,0.2100000083446502,169.70814514160156,-219.995361328125,166.77972412109375,4.431665897369385,-7.018399238586426,5.654441833496094,-0.7699999809265137,-2.7300000190734863,-1.1200000047683716,44.10000228881836,10.65000057220459,-21.450000762939453,9.53334617614746,1.9765421152114868,1.6917860507965088,0.1400000005960464,0.1400000005960464,0.8400000333786011,30.43193626403809,-160.12220764160156,-97.5595932006836,3.421858549118042,6.73603630065918,6.51110315322876,-0.5600000023841858,-0.4200000166893005,1.0499999523162842,59.92646408081055,-151.50209045410156,120.63844299316406,9.56684684753418,-2.380943536758423,1.9215052127838133,-0.699999988079071,0.0,0.9100000262260436,160.97549438476562,-97.20802307128906,-189.7574157714844
5257,1720095607.6853368,9.47830867767334,-0.2464695274829864,2.8355960845947266,2.1700000762939453,1.2599999904632568,0.2800000011920929,168.43505859375,-221.39059448242188,164.99888610839844,4.434058666229248,-7.035149574279785,5.61615514755249,-1.2599999904632568,-2.870000123977661,-0.9800000190734864,43.35000228881836,10.950000762939451,-23.25,9.57402515411377,1.971756219863892,1.6965718269348145,-0.2100000083446502,0.0700000002980232,0.7699999809265137,29.08740997314453,-158.05287170410156,-98.7258071899414,3.4098939895629883,6.685785293579102,6.535031795501709,-0.9100000262260436,-0.4200000166893005,1.2599999904632568,59.92646408081055,-151.50209045410156,120.63844299316406,9.684099197387695,-2.359407424926758,1.86646831035614,-0.1400000005960464,0.1400000005960464,1.3300000429153442,158.8721923828125,-93.94293212890624,-190.42620849609372
5258,1720095607.7109778,9.504631042480469,-0.2703986167907715,2.971991777420044,1.1200000047683716,0.8400000333786011,0.2800000011920929,169.8472900390625,-221.364990234375,165.1341552734375,4.400557994842529,-7.080615043640137,5.623333930969238,-1.680000066757202,-2.799999952316284,-0.9800000190734864,43.80000305175781,11.700000762939451,-20.400001525878903,9.569239616394045,1.9238981008529663,1.672642707824707,-0.2800000011920929,0.4200000166893005,0.6299999952316284,30.614465713500977,-155.92236328125,-98.21818542480467,3.393143653869629,6.6786065101623535,6.549389362335205,-1.2599999904632568,-0.4200000166893005,1.190000057220459,59.92646408081055,-151.50209045410156,120.63844299316406,9.889888763427734,-2.045936346054077,1.966970443725586,1.190000057220459,0.4200000166893005,2.6600000858306885,161.98049926757812,-96.55101013183594,-187.1243438720703
5259,1720095607.6852398,9.430450439453123,-0.2273262739181518,3.036600351333618,-0.699999988079071,0.0,0.0,167.39407348632812,-220.93605041503903,165.92755126953125,4.402950763702393,-7.193081855773926,5.608976364135742,-1.4700000286102295,-3.150000095367432,-1.1200000047683716,44.10000228881836,10.5,-21.600000381469727,9.54052448272705,1.90954065322876,1.7037506103515625,0.0,0.4900000095367431,0.4900000095367431,28.56201171875,-157.7261199951172,-100.90734100341795,3.4314301013946533,6.590068817138672,6.520674705505371,-1.4700000286102295,-0.4900000095367431,1.190000057220459,59.92646408081055,-151.50209045410156,120.63844299316406,10.011927604675291,-1.945434331893921,2.0220072269439697,-0.9100000262260436,1.399999976158142,4.130000114440918,161.57289123535156,-95.71868896484376,-189.63758850097656
5260,1720095607.685144,9.727170944213867,-0.3565433025360107,2.6393775939941406,0.7699999809265137,1.75,-0.2800000011920929,168.1704864501953,-218.4474639892578,163.69996643066406,4.455595016479492,-7.109330177307129,5.597012042999268,-0.9100000262260436,-3.150000095367432,-1.0499999523162842,42.30000305175781,11.550000190734863,-21.30000114440918,9.516595840454102,1.9191123247146609,1.672642707824707,0.4900000095367431,0.4900000095367431,0.6299999952316284,29.50448226928711,-158.40240478515625,-99.77186584472656,3.378786325454712,6.611605167388916,6.592461585998535,-1.1200000047683716,-0.5600000023841858,1.190000057220459,59.92646408081055,-151.50209045410156,120.63844299316406,9.822887420654297,-2.61305570602417,2.163188934326172,-6.159999847412109,5.880000114440918,1.2599999904632568,161.4997100830078,-93.85438537597656,-189.86737060546875
5261,1720095607.710785,9.425664901733398,-0.2464695274829864,3.1514599323272705,-4.550000190734863,-1.8200000524520876,-0.5600000023841858,169.3287811279297,-219.15708923339844,165.10845947265625,4.446023464202881,-7.1356520652771,5.604190826416016,-0.699999988079071,-3.0799999237060547,-1.190000057220459,43.20000076293945,10.5,-20.700000762939453,9.518988609313965,1.8951832056045528,1.6630711555480957,0.5600000023841858,0.4900000095367431,0.699999988079071,30.66059112548828,-160.99220275878906,-100.37887573242188,3.3548572063446045,6.659463405609131,6.561354160308838,-0.8400000333786011,-0.5600000023841858,1.2599999904632568,59.92646408081055,-151.50209045410156,120.63844299316406,,,,,,,,,
5262,1720095607.685459,9.504631042480469,-0.1435744911432266,2.907383441925049,1.3300000429153442,2.5899999141693115,-0.8400000333786011,171.12806701660156,-221.56805419921875,166.35125732421875,4.477130889892578,-7.109330177307129,5.606583595275879,-0.9800000190734864,-3.009999990463257,-1.2599999904632568,43.5,12.15000057220459,-20.55000114440918,9.480701446533203,1.873647093772888,1.6654640436172483,0.4200000166893005,0.4200000166893005,0.6299999952316284,27.589933395385746,-158.85699462890625,-98.71813201904295,3.450573444366455,6.64031982421875,6.5374250411987305,-0.7699999809265137,-0.7699999809265137,1.190000057220459,59.92646408081055,-151.50209045410156,120.63844299316406,9.94731903076172,-2.6752712726593018,2.500588893890381,-3.7100000381469727,11.6899995803833,-6.300000190734863,161.0906219482422,-99.34327697753906,-189.43576049804688
5263,1720095607.685361,9.456772804260254,-0.4953319728374481,3.0246357917785645,-0.0700000002980232,0.0700000002980232,0.0700000002980232,171.71470642089844,-221.40110778808597,166.51708984375,4.5010600090026855,-7.197867393493652,5.57308292388916,-0.3499999940395355,-3.220000028610229,-1.3300000429153442,43.05000305175781,11.100000381469728,-20.55000114440918,9.55009651184082,1.955005884170532,1.6295703649520874,0.4900000095367431,0.0700000002980232,0.5600000023841858,29.13189697265625,-160.20298767089844,-100.50910949707033,3.4457876682281494,6.621176719665527,6.523067474365234,-0.8400000333786011,-0.7699999809265137,1.1200000047683716,59.92646408081055,-151.50209045410156,120.63844299316406,9.77263641357422,-2.194296836853028,2.500588893890381,5.25,17.56999969482422,-14.90999984741211,160.53958129882812,-96.8624496459961,-189.27267456054688
5264,1720095607.685263,9.571632385253906,-0.4833674430847168,2.936098337173462,1.190000057220459,-0.2800000011920929,0.9800000190734864,170.37696838378906,-221.9706115722656,166.284912109375,4.532167911529541,-7.17872428894043,5.652049064636231,0.9800000190734864,-3.289999961853028,-1.399999976158142,44.10000228881836,10.950000762939451,-20.700000762939453,9.681706428527832,1.9430413246154783,1.6176059246063232,0.6299999952316284,-0.2100000083446502,0.4200000166893005,30.11118698120117,-161.4310760498047,-100.59318542480467,3.49843168258667,6.661856174468994,6.546996593475342,-0.7699999809265137,-0.5600000023841858,1.0499999523162842,59.92646408081055,-151.50209045410156,120.63844299316406,9.79417324066162,-0.9954497814178468,2.814059972763061,6.720000267028809,24.149999618530277,-18.899999618530277,158.51332092285156,-96.02041625976562,-191.9135589599609
5265,1720095607.710904,9.363449096679688,-0.619763195514679,2.945669889450073,3.7100000381469727,-0.9100000262260436,1.9600000381469729,169.261962890625,-220.2115173339844,164.64161682128906,4.632669925689697,-7.288797855377197,5.71187162399292,2.309999942779541,-3.569999933242798,-1.3300000429153442,44.400001525878906,12.15000057220459,-19.80000114440918,9.629061698913574,1.964577555656433,1.7324655055999756,0.699999988079071,-0.0700000002980232,0.3499999940395355,30.434574127197266,-157.48138427734375,-98.21296691894533,3.4553592205047607,6.635534286499023,6.530246257781982,-0.699999988079071,-0.4200000166893005,0.9100000262260436,59.92646408081055,-151.50209045410156,120.63844299316406,10.19139575958252,-0.2823631465435028,2.730308055877685,-2.380000114440918,27.51000022888184,-23.309999465942383,159.93539428710938,-95.7129364013672,-190.3265380859375
5266,1720095607.6855738,9.514202117919922,-0.3996156454086303,2.9767775535583496,5.460000038146973,-4.199999809265137,2.450000047683716,168.7489013671875,-221.9628753662109,165.87664794921875,4.706850051879883,-7.408443450927734,5.762122631072998,4.199999809265137,-4.199999809265137,-1.0499999523162842,42.75,11.25,-20.55000114440918,9.638633728027344,1.945434331893921,1.7348583936691284,1.190000057220459,-0.4900000095367431,0.0,31.94529151916504,-157.71482849121094,-96.30186462402344,3.450573444366455,6.664248943328857,6.477602005004883,-0.6299999952316284,-0.2100000083446502,0.699999988079071,59.92646408081055,-151.50209045410156,120.63844299316406,10.447436332702637,-0.2177546322345733,2.6680924892425537,-18.899999618530277,32.40999984741211,-29.75,160.16534423828125,-95.74331665039062,-189.6325225830078
5267,1720095607.685484,9.595561027526855,-0.4546525478363037,3.141888380050659,4.269999980926514,-1.1200000047683716,2.380000114440918,169.9406280517578,-221.9049072265625,165.5985565185547,4.891104221343994,-7.812844753265381,6.0947370529174805,8.539999961853027,-7.139999866485596,0.0700000002980232,44.10000228881836,12.300000190734863,-20.400001525878903,9.779815673828123,1.964577555656433,1.746822953224182,1.0499999523162842,-1.2599999904632568,-0.8400000333786011,30.116003036499023,-156.91009521484375,-99.23104858398438,3.4242515563964844,6.6786065101623535,6.463244915008545,-0.699999988079071,0.0700000002980232,0.7699999809265137,59.92646408081055,-151.50209045410156,120.63844299316406,10.184216499328612,-0.3804723918437958,2.479052782058716,-36.81999969482422,35.13999938964844,-38.220001220703125,161.5013427734375,-96.77410125732422,-190.2447509765625
5268,1720095607.6853848,9.38498592376709,-0.3230426013469696,3.034207344055176,5.740000247955322,2.7300000190734863,1.75,168.16061401367188,-219.2100982666016,166.0881805419922,5.199789047241211,-7.697985172271728,6.252668857574463,15.260000228881836,-10.989999771118164,1.399999976158142,43.05000305175781,10.350000381469728,-23.400001525878903,9.624276161193848,1.904754877090454,1.837753415107727,0.2800000011920929,-1.4700000286102295,-1.6100000143051147,31.278892517089844,-162.1387481689453,-98.9040298461914,3.4242515563964844,6.64031982421875,6.51828145980835,-0.8400000333786011,-0.0700000002980232,0.9800000190734864,59.92646408081055,-151.50209045410156,120.63844299316406,10.145930290222168,-0.4474738240242004,2.6106626987457275,-48.09000015258789,36.2599983215332,-47.7400016784668,161.27786254882812,-95.14244842529295,-189.9540252685547
5269,1720095607.7110257,,,,,,,,,,5.656834602355957,-7.62141227722168,6.970541477203369,22.190000534057617,-11.829999923706056,5.110000133514404,44.25,10.200000762939451,-22.05000114440918,9.37541389465332,1.7970739603042605,1.9191123247146609,1.0499999523162842,-1.2599999904632568,-1.75,30.249656677246094,-154.80125427246094,-98.29737854003906,3.433823108673096,6.697749614715576,6.525460243225098,-0.9800000190734864,-0.2100000083446502,1.1200000047683716,59.92646408081055,-151.50209045410156,120.63844299316406,10.081321716308594,-0.7418015003204346,2.6393775939941406,-49.0,38.92000198364258,-55.29999923706055,158.73648071289062,-93.41193389892578,-192.1535797119141
5270,1720095607.6857038,9.241411209106444,-0.2368979007005691,3.0174570083618164,6.019999980926514,1.6100000143051147,0.4200000166893005,168.14431762695312,-221.0932464599609,163.6516876220703,6.322062969207764,-6.946612358093262,7.1500091552734375,15.190000534057615,-18.76000022888184,7.139999866485596,43.20000076293945,11.550000190734863,-21.600000381469727,9.411307334899902,1.844932198524475,1.847325086593628,3.220000028610229,-1.2599999904632568,-1.6100000143051147,28.004047393798828,-157.6072540283203,-99.06011199951172,3.464931011199951,6.645105838775635,6.558960914611816,-0.699999988079071,-0.5600000023841858,1.2599999904632568,59.92646408081055,-151.50209045410156,120.63844299316406,10.155502319335938,-0.8686256408691406,2.6513421535491943,-45.43000030517578,42.34999847412109,-60.130001068115234,159.10984802246094,-95.09082794189452,-194.13592529296875
5271,1720095607.6856298,9.346698760986328,-0.1363957673311233,3.1083877086639404,7.139999866485596,-1.6100000143051147,-1.1200000047683716,168.9514923095703,-220.9586639404297,164.2308807373047,7.233761310577393,-7.346227645874023,6.104308605194092,8.050000190734863,-22.46999931335449,7.210000038146973,45.0,9.90000057220459,-21.30000114440918,9.356270790100098,1.916719436645508,1.777930736541748,3.990000009536743,-1.1200000047683716,-1.2599999904632568,31.179637908935547,-158.40023803710938,-97.96028137207033,3.5247535705566406,6.621176719665527,6.5661396980285645,-0.2100000083446502,-0.9100000262260436,1.4700000286102295,59.92646408081055,-151.50209045410156,120.63844299316406,10.054999351501465,-0.8829830884933472,2.9193477630615234,-44.52000045776367,45.77999877929688,-63.0,160.1058807373047,-94.1559066772461,-190.61241149902344
5272,1720095607.6855078,9.325162887573242,-0.0406794361770153,3.0509579181671143,6.579999923706055,-1.4700000286102295,-2.5199999809265137,167.942626953125,-221.05691528320312,163.79966735839844,7.1835103034973145,-7.575946807861328,6.2718119621276855,-0.6299999952316284,-18.059999465942383,10.56999969482422,44.55000305175781,9.90000057220459,-21.75,9.349091529846191,1.9813278913497925,1.6152129173278809,4.269999980926514,-0.699999988079071,-0.4900000095367431,29.07164001464844,-155.13613891601562,-98.76940155029295,3.563040256500244,6.67621374130249,6.561354160308838,0.0,-0.9800000190734864,1.75,59.92646408081055,-151.50209045410156,120.63844299316406,10.11242961883545,-0.4187589287757873,3.141888380050659,-44.52000045776367,48.720001220703125,-66.08000183105469,159.15443420410156,-92.72093200683594,-194.69741821289065
5273,1720095607.7111487,9.406521797180176,0.12921704351902,2.98634934425354,4.760000228881836,-0.4200000166893005,-3.920000076293945,169.30555725097656,-223.4021759033203,164.35609436035156,7.724307537078857,-7.513731479644775,5.958341121673584,6.159999847412109,-9.9399995803833,12.600000381469728,43.650001525878906,10.350000381469728,-20.55000114440918,9.423272132873535,2.0291860103607178,1.5362470149993896,4.409999847412109,-0.0700000002980232,0.6299999952316284,31.23397827148437,-160.26849365234375,-98.29182434082033,3.5319323539733887,6.482388019561768,6.551782131195068,0.6299999952316284,-0.9100000262260436,1.2599999904632568,59.92646408081055,-151.50209045410156,120.63844299316406,9.94731903076172,0.1148595884442329,3.3285350799560547,-45.43000030517578,50.68000030517578,-70.9800033569336,157.49472045898438,-91.39973449707033,-196.41470336914065
5274,1720095607.6858568,9.370628356933594,0.12921704351902,2.9839563369750977,0.699999988079071,-0.9100000262260436,-4.690000057220459,170.47251892089844,-220.1495819091797,164.92486572265625,7.004042148590088,-6.544603824615479,6.0755934715271,-4.900000095367432,1.6100000143051147,12.039999961853027,44.70000076293945,10.800000190734863,-20.850000381469727,9.351485252380373,2.043543577194214,1.4740313291549685,5.039999961853027,0.1400000005960464,1.5399999618530271,29.78241539001465,-157.38232421875,-99.1723403930664,3.5151820182800293,6.448887348175049,6.582890033721924,1.6100000143051147,-0.5600000023841858,0.5600000023841858,59.92646408081055,-151.50209045410156,120.63844299316406,10.076536178588867,0.1531461179256439,3.464931011199951,-50.81999969482422,51.869998931884766,-77.27999877929688,155.1768341064453,-91.30087280273438,-198.90499877929688
5275,1720095607.6857288,9.440022468566896,0.0191432647407054,2.895418882369995,0.1400000005960464,-1.8200000524520876,-5.460000038146973,171.11097717285156,-219.9717254638672,166.63433837890625,6.45845890045166,-7.461087226867676,5.254826068878174,2.450000047683716,8.119999885559082,16.100000381469727,43.80000305175781,10.800000190734863,-20.400001525878903,9.447200775146484,2.057900905609131,1.4979604482650757,6.579999923706055,0.1400000005960464,2.940000057220459,32.179866790771484,-161.7834014892578,-100.52931213378906,3.4936459064483643,6.482388019561768,6.587676048278809,2.799999952316284,-0.2100000083446502,-0.3499999940395355,59.92646408081055,-151.50209045410156,120.63844299316406,10.526402473449709,0.0981092303991317,3.5295393466949463,-60.20000076293945,58.17000198364258,-80.77999877929688,155.6539306640625,-88.43795013427734,-196.57827758789065
5276,1720095607.6856549,9.291662216186523,-0.0550368875265121,3.117959260940552,-3.3600001335144043,-4.130000114440918,-6.019999980926514,171.43589782714844,-223.46173095703125,167.4153594970703,6.647498607635498,-6.731250286102295,4.572847366333008,-4.550000190734863,8.609999656677246,6.929999828338623,44.10000228881836,10.200000762939451,-20.55000114440918,9.437629699707031,2.0746512413024902,1.5386399030685425,8.609999656677246,0.0,4.760000228881836,28.775299072265625,-155.88031005859375,-98.75914764404295,3.448180675506592,6.527853488922119,6.503924369812012,3.569999933242798,0.3499999940395355,-0.9800000190734864,59.92646408081055,-151.50209045410156,120.63844299316406,10.248825073242188,-0.0382865294814109,3.723365068435669,-70.41999816894531,66.5,-81.19999694824219,158.64492797851562,-90.79093170166016,-195.61355590820312
5277,1720095607.7112958,9.38498592376709,-0.0311078056693077,2.871489763259888,-3.569999933242798,-2.380000114440918,-6.159999847412109,172.58226013183594,-221.8133850097656,166.57838439941406,6.451280117034912,-6.623569488525391,5.0418572425842285,-2.380000114440918,17.5,0.9800000190734864,43.80000305175781,10.200000762939451,-20.700000762939453,9.45438003540039,2.232583284378052,1.5864980220794678,9.170000076293944,-0.4900000095367431,6.369999885559082,27.80367851257324,-156.25051879882812,-99.23882293701172,3.426644325256348,6.570925712585449,6.489566802978516,3.640000104904175,0.9800000190734864,-1.190000057220459,59.92646408081055,-151.50209045410156,120.63844299316406,9.538131713867188,-0.4163660109043121,3.6635422706604,-74.19999694824219,70.13999938964844,-81.12999725341797,154.7945098876953,-88.8633041381836,-199.8721923828125
5278,1720095607.685977,9.327555656433104,-0.033500712364912,2.790130853652954,-3.3600001335144043,-2.6600000858306885,-6.159999847412109,170.13595581054688,-219.0225067138672,165.68763732910156,5.987056255340576,-6.403421878814697,5.721443176269531,6.720000267028809,24.989999771118164,-5.389999866485596,44.55000305175781,8.25,-20.850000381469727,9.518988609313965,2.3426570892333984,1.56256902217865,7.28000020980835,-1.2599999904632568,7.0,28.9122314453125,-159.6108856201172,-98.58026123046876,3.350071430206299,6.630748271942139,6.448887348175049,3.640000104904175,1.5399999618530271,-1.190000057220459,59.92646408081055,-151.50209045410156,120.63844299316406,9.394556999206545,-0.5671192407608032,3.4888598918914795,-73.77999877929688,69.37000274658203,-80.01000213623047,150.57708740234375,-88.17552185058594,-202.38555908203125
5279,1720095607.6859298,9.356270790100098,-0.0598227009177207,2.940884113311768,-6.230000019073486,-7.210000038146973,-6.510000228881836,169.6138458251953,-224.53518676757807,162.75132751464844,5.802802085876465,-7.544839382171631,6.278990745544434,14.5600004196167,18.479999542236328,-6.720000267028809,42.60000228881836,11.700000762939451,-20.700000762939453,9.569239616394045,2.3426570892333984,1.5936768054962158,3.5,-1.8200000524520876,7.349999904632568,28.082822799682617,-158.43002319335938,-100.1877899169922,3.316570520401001,6.752786636352539,6.422565460205078,4.409999847412109,2.0999999046325684,-0.9800000190734864,59.92646408081055,-151.50209045410156,120.63844299316406,9.265339851379396,-0.6412993669509888,3.443394660949707,-74.05999755859375,66.91999816894531,-75.87999725341797,152.6132354736328,-88.2549057006836,-202.1329040527344
5280,1720095607.6857548,9.497451782226562,0.06460852175951,2.9337053298950195,-6.929999828338623,-8.819999694824219,-6.440000057220459,169.71966552734375,-222.1524200439453,164.0141143798828,6.50153112411499,-9.250982284545898,6.068414688110352,28.420000076293945,11.760000228881836,-6.510000228881836,43.80000305175781,10.65000057220459,-21.30000114440918,9.58359718322754,2.242154836654663,1.581712245941162,-0.699999988079071,-1.8200000524520876,7.630000114440918,30.013572692871094,-160.61227416992188,-100.02682495117188,3.295034408569336,6.925076007843018,6.381886005401611,4.760000228881836,2.450000047683716,-0.7699999809265137,59.92646408081055,-151.50209045410156,120.63844299316406,8.985369682312012,-1.0050214529037476,3.376393318176269,-73.36000061035156,62.720001220703125,-67.41000366210938,151.31700134277344,-89.37522888183594,-203.4442901611328
5281,1720095607.7113955,9.581204414367676,0.0717872455716133,2.9528486728668213,-8.890000343322754,-6.720000267028809,-6.789999961853027,172.4182586669922,-221.7691345214844,167.8489990234375,,,,,,,,,,9.55009651184082,2.21343994140625,1.643927812576294,-3.569999933242798,-1.6100000143051147,7.630000114440918,29.054872512817383,-157.77993774414062,-98.53701782226562,3.2088897228240967,6.929862022399902,6.29334831237793,3.3600001335144043,2.1700000762939453,-0.6299999952316284,59.92646408081055,-151.50209045410156,120.63844299316406,8.652755737304688,-1.3783150911331177,3.5391111373901367,-71.4000015258789,57.470001220703125,-56.209999084472656,149.983642578125,-85.70361328125,-203.4854431152344
5282,1720095607.6860769,9.578810691833496,0.0957163274288177,2.754237174987793,-9.3100004196167,-5.809999942779541,-7.210000038146973,168.98239135742188,-218.3118896484375,164.4194793701172,5.977484226226807,-8.834616661071777,6.1976318359375,42.27999877929688,18.690000534057617,-10.010000228881836,43.05000305175781,11.100000381469728,-22.05000114440918,9.581204414367676,2.0985803604125977,1.6008554697036743,-4.829999923706055,-1.0499999523162842,7.699999809265137,30.2208309173584,-160.08787536621094,-97.69227600097656,3.2017109394073486,6.925076007843018,6.398636341094971,1.399999976158142,1.399999976158142,-0.699999988079071,59.92646408081055,-151.50209045410156,120.63844299316406,8.312962532043457,-1.514710783958435,3.7185792922973633,-70.69999694824219,50.88999938964844,-42.42000198364258,151.63821411132812,-87.3056869506836,-203.07958984375
5283,1720095607.6860268,9.593168258666992,-0.0287148971110582,2.806881189346313,-11.270000457763672,-6.650000095367432,-7.630000114440918,170.2656707763672,-220.39410400390625,163.7613983154297,5.214146614074707,-8.013849258422852,7.035149574279785,46.060001373291016,24.21999931335449,-7.840000152587891,44.400001525878906,11.40000057220459,-23.400001525878903,9.712814331054688,2.0291860103607178,1.5051392316818235,-5.110000133514404,-0.3499999940395355,7.840000152587891,29.58543968200684,-157.3450164794922,-98.884033203125,3.2280330657958984,6.843717098236084,6.424958229064941,0.8400000333786011,0.6299999952316284,-1.3300000429153442,59.92646408081055,-151.50209045410156,120.63844299316406,7.946847915649414,-1.6056413650512695,3.795152187347412,-73.36000061035156,43.68000030517578,-26.600000381469727,149.6521453857422,-88.33488464355469,-206.47300720214844
5284,1720095607.685882,9.674527168273926,-0.0143574485555291,2.816452741622925,-11.619999885559082,-7.490000247955322,-7.909999847412109,170.9555206298828,-220.48524475097656,165.84341430664062,4.749922752380371,-7.769772529602051,7.721914291381836,30.520000457763672,26.31999969482422,-0.3499999940395355,43.80000305175781,10.5,-25.500001907348636,9.760672569274902,2.0076498985290527,1.5051392316818235,-5.809999942779541,0.4900000095367431,7.699999809265137,27.287242889404297,-156.6824493408203,-98.47081756591795,3.2304258346557617,6.829359531402588,6.456066131591797,1.399999976158142,0.1400000005960464,-1.75,59.92646408081055,-151.50209045410156,120.63844299316406,8.001884460449219,-1.8257888555526731,4.02008581161499,-81.41000366210938,37.02999877929688,-7.980000019073486,148.07591247558594,-88.31625366210938,-205.337646484375
5285,1720095607.685906,9.66016960144043,-0.0909305065870285,2.7781662940979004,-13.020000457763672,-6.159999847412109,-7.840000152587891,171.8517608642578,-220.6116943359375,167.91778564453125,4.38380765914917,-6.977719783782959,8.68864917755127,0.699999988079071,31.36000061035156,9.65999984741211,43.650001525878906,11.100000381469728,-25.950000762939453,9.688884735107422,1.9143264293670652,1.5386399030685425,-6.860000133514404,1.2599999904632568,7.559999942779541,28.14065933227539,-157.0977020263672,-98.83051300048828,3.16821026802063,6.819787979125977,6.499138355255127,1.75,-0.4900000095367431,-2.240000009536743,59.92646408081055,-151.50209045410156,120.63844299316406,7.841559886932373,-2.28283429145813,4.067943572998047,-88.34000396728516,32.34000015258789,10.43000030517578,149.749755859375,-89.1536865234375,-207.03936767578125
5286,1720095607.6861749,9.56684684753418,-0.2177546322345733,2.790130853652954,-12.039999961853027,-6.090000152587891,-7.909999847412109,173.38987731933594,-221.39892578125,168.32867431640625,3.6204700469970703,-6.4393157958984375,9.21748161315918,-33.880001068115234,36.470001220703125,24.36000061035156,42.900001525878906,11.100000381469728,-25.200000762939453,9.614705085754396,1.876039981842041,1.517103672027588,-7.559999942779541,1.75,7.420000076293945,27.74923324584961,-158.90225219726562,-100.12908172607422,3.225640058517456,6.848503112792969,6.482388019561768,1.6100000143051147,-1.3300000429153442,-2.6600000858306885,59.92646408081055,-151.50209045410156,120.63844299316406,7.566375255584717,-2.754237174987793,4.252197742462158,-91.3499984741211,26.950000762939453,28.770000457763672,150.48880004882812,-91.39393615722656,-206.60031127929688
5287,1720095607.7118158,9.600347518920898,-0.2727915346622467,2.711164951324463,-10.710000038146973,-5.53000020980835,-8.050000190734863,170.4292449951172,-221.19903564453125,165.15966796875,2.304370403289795,-5.049036026000977,8.927940368652344,-81.62000274658203,41.5099983215332,41.5099983215332,44.10000228881836,11.25,-23.700000762939453,,,,,,,,,,3.247176170349121,6.800644874572754,6.4321370124816895,1.2599999904632568,-2.0299999713897705,-3.0799999237060547,59.92646408081055,-151.50209045410156,120.63844299316406,7.607054710388184,-3.376393318176269,4.209125518798828,-89.66999816894531,19.8799991607666,45.08000183105469,150.4253692626953,-93.76778411865234,-206.6001434326172
5288,1720095607.6860018,9.51180934906006,-0.4020085632801056,2.818845748901367,-8.260000228881836,-5.740000247955322,-7.420000076293945,170.9786376953125,-220.7601623535156,165.3739776611328,1.359171748161316,-3.8597607612609854,8.116744041442871,-152.52999877929688,39.68999862670898,62.650001525878906,43.20000076293945,9.300000190734863,-22.05000114440918,9.542917251586914,1.7875022888183594,1.541032791137695,-8.050000190734863,1.5399999618530271,7.210000038146973,30.26881599426269,-159.03741455078125,-97.78675842285156,3.251962184906006,6.82218074798584,6.441708564758301,1.2599999904632568,-2.6600000858306885,-3.220000028610229,59.92646408081055,-151.50209045410156,120.63844299316406,7.645341396331787,-3.878904104232788,4.216303825378418,-80.98999786376953,11.6899995803833,59.220001220703125,147.72720336914062,-93.87120819091795,-209.2639312744141
5289,1720095607.686051,9.64581298828125,-0.368507832288742,2.797309637069702,-6.019999980926514,-5.460000038146973,-6.159999847412109,170.877197265625,-218.90179443359372,164.30221557617188,0.7633376717567444,-4.517810344696045,7.40365743637085,-223.72000122070312,38.84999847412109,84.7699966430664,41.85000228881836,8.550000190734863,-20.700000762939453,9.57402515411377,1.70135760307312,1.581712245941162,-8.470000267028809,0.8400000333786011,6.720000267028809,28.57525062561035,-158.76370239257812,-98.98856353759766,3.247176170349121,6.90114688873291,6.377099990844727,0.4900000095367431,-3.009999990463257,-3.0799999237060547,59.92646408081055,-151.50209045410156,120.63844299316406,7.748236179351807,-4.180410385131836,4.154088497161865,-68.18000030517578,2.5899999141693115,72.7300033569336,149.47337341308594,-97.6134796142578,-209.23806762695312
5290,1720095607.686298,9.552489280700684,-0.5264397859573364,2.814059972763061,-4.480000019073486,-4.480000019073486,-3.990000009536743,171.87826538085938,-222.20602416992188,167.9153594970703,-0.6341206431388855,-6.355564117431641,6.377099990844727,-261.45001220703125,39.900001525878906,103.66999816894533,42.30000305175781,4.950000286102295,-15.90000057220459,9.700849533081056,1.6534994840621948,1.5769264698028564,-8.75,0.4900000095367431,5.880000114440918,29.5789794921875,-158.9462890625,-99.8687744140625,3.261533737182617,6.920289993286133,6.470423698425293,-0.7699999809265137,-3.3600001335144043,-2.799999952316284,59.92646408081055,-151.50209045410156,120.63844299316406,7.958812236785889,-4.5010600090026855,4.446023464202881,-57.470001220703125,-6.369999885559082,86.16999816894531,148.53646850585938,-96.37646484375,-207.8910217285156
5291,1720095607.7119389,9.617097854614258,-0.4307234585285187,2.7733805179595947,-1.680000066757202,-4.829999923706055,-1.75,169.77279663085938,-220.82110595703125,165.23106384277344,-1.208418607711792,-7.83916711807251,5.168681621551514,-261.5899963378906,35.84000015258789,125.79000091552734,39.0,4.800000190734863,-13.350000381469728,9.70563507080078,1.5745335817337036,1.6080342531204224,-9.170000076293944,0.1400000005960464,4.269999980926514,31.264442443847656,-157.90158081054688,-99.2743148803711,3.251962184906006,6.896361351013184,6.489566802978516,-1.6100000143051147,-3.640000104904175,-2.450000047683716,59.92646408081055,-151.50209045410156,120.63844299316406,8.351249694824219,-4.256983280181885,4.572847366333008,-51.65999984741211,-13.720000267028809,99.0500030517578,149.65740966796875,-101.33415985107422,-207.6558837890625
5292,1720095607.686127,9.64581298828125,-0.4115802049636841,2.852346420288086,1.3300000429153442,-4.480000019073486,0.2100000083446502,170.7417755126953,-223.0917205810547,166.36410522460938,-1.7324655055999756,-8.614469528198242,4.326377868652344,-243.04000854492188,37.52000045776367,151.27000427246094,38.25,2.25,-8.850000381469727,9.767850875854492,1.5506044626235962,1.5936768054962158,-9.9399995803833,0.0700000002980232,2.309999942779541,27.968870162963867,-159.9751434326172,-98.21794891357422,3.2902486324310303,6.795858860015869,6.4321370124816895,-2.380000114440918,-3.7799999713897705,-2.240000009536743,59.92646408081055,-151.50209045410156,120.63844299316406,8.281854629516602,-4.386200428009033,4.706850051879883,-49.90999984741211,-19.25,109.34000396728516,149.58935546875,-99.1889877319336,-206.57423400878903
5293,1720095607.6862738,9.614705085754396,-0.3326142132282257,2.8547394275665283,4.130000114440918,-2.940000057220459,1.75,169.99549865722656,-218.97329711914065,167.659912109375,-2.115330696105957,-10.026285171508787,3.450573444366455,-206.2899932861328,43.18999862670898,175.6999969482422,36.0,1.0500000715255735,-2.1000001430511475,9.856388092041016,1.3831008672714231,1.5888910293579102,-10.220000267028809,0.1400000005960464,0.4200000166893005,28.753389358520508,-158.8049774169922,-99.83818817138672,3.330928087234497,6.850895881652832,6.403421878814697,-2.5199999809265137,-3.569999933242798,-2.0299999713897705,59.92646408081055,-151.50209045410156,120.63844299316406,8.42782211303711,-4.792994976043701,4.5991692543029785,-44.09999847412109,-24.56999969482422,114.23999786376952,149.9266815185547,-103.79551696777344,-210.05661010742188
5294,1720095607.6864188,,,,,,,,,,-2.290013074874878,-10.344541549682615,3.1490671634674072,-160.72000122070312,57.81999969482422,186.6199951171875,32.70000076293945,-0.6000000238418579,3.0,9.846817016601562,1.2658483982086182,1.5386399030685425,-9.170000076293944,0.1400000005960464,-1.3300000429153442,28.790637969970703,-159.07691955566406,-99.88665008544922,3.3835721015930176,6.738429069519043,6.424958229064941,-2.870000123977661,-3.920000076293945,-1.680000066757202,59.92646408081055,-151.50209045410156,120.63844299316406,8.59293270111084,-4.699671268463135,4.721207618713379,-35.42000198364258,-27.93000030517578,115.8499984741211,148.62705993652344,-104.07721710205078,-207.9950408935547
5295,1720095607.7120595,9.564454078674316,-0.3158638775348663,2.924133777618408,7.630000114440918,-2.5199999809265137,3.009999990463257,165.42654418945312,-217.72116088867188,163.1461639404297,-2.625020265579224,-11.038484573364258,3.1251380443573,-104.93000030517578,79.44999694824219,184.3800048828125,30.30000114440918,-3.0,6.900000095367432,9.868352890014648,1.1557745933532717,1.5482115745544434,-6.720000267028809,0.1400000005960464,-2.5899999141693115,30.80366325378418,-158.88137817382812,-99.16454315185548,3.426644325256348,6.786287307739258,6.489566802978516,-3.0799999237060547,-3.7799999713897705,-1.4700000286102295,59.92646408081055,-151.50209045410156,120.63844299316406,8.511573791503906,-4.474738121032715,4.864782333374023,-27.229999542236328,-30.450000762939453,118.37000274658205,148.74954223632812,-103.57064056396484,-208.1864318847656
5296,1720095607.68625,9.47830867767334,-0.2775773406028747,2.8930258750915527,10.56999969482422,-3.430000066757202,4.340000152587891,169.05599975585938,-219.89630126953125,165.8203582763672,-2.98634934425354,-10.007142066955566,2.775773286819458,-47.459999084472656,101.70999908447266,167.72000122070312,28.500001907348636,-3.750000238418579,11.550000190734863,9.83485221862793,1.201239824295044,1.5338541269302368,-3.7100000381469727,0.1400000005960464,-3.3600001335144043,29.889450073242188,-158.1991424560547,-99.45803833007812,3.5247535705566406,6.683392524719238,6.465637683868408,-2.870000123977661,-3.289999961853028,-1.0499999523162842,59.92646408081055,-151.50209045410156,120.63844299316406,8.561824798583984,-4.706850051879883,4.797780513763428,-18.270000457763672,-33.459999084472656,120.95999908447266,150.9710235595703,-106.05027770996094,-206.6782684326172
5297,1720095607.686322,9.413700103759766,-0.2919347882270813,2.8619179725646973,12.8100004196167,-3.7799999713897705,5.809999942779541,169.2581024169922,-219.6527557373047,166.84347534179688,-3.787973403930664,-9.14808750152588,2.151224374771118,3.430000066757202,117.73999786376952,141.39999389648438,25.950000762939453,-2.700000047683716,12.0,9.853995323181152,1.237133502960205,1.4501023292541504,-0.699999988079071,0.2100000083446502,-3.990000009536743,27.83785820007324,-159.4431610107422,-99.80500030517578,3.584576368331909,6.714499950408936,6.472816467285156,-2.1700000762939453,-2.940000057220459,-0.7699999809265137,59.92646408081055,-151.50209045410156,120.63844299316406,8.865724563598633,-5.403186321258545,4.658992290496826,-5.53000020980835,-35.84000015258789,121.59000396728516,147.49142456054688,-104.40316009521484,-207.2041015625
5298,1720095607.686642,9.35866355895996,-0.260826975107193,2.8930258750915527,15.190000534057615,-4.269999980926514,7.070000171661377,170.25416564941406,-218.237060546875,166.5270233154297,-4.247411727905273,-9.05237102508545,2.036364793777466,50.540000915527344,124.9499969482422,109.83000183105467,24.450000762939453,-2.8500001430511475,13.950000762939451,9.753493309020996,1.3137065172195437,1.4788172245025637,1.680000066757202,0.0,-4.760000228881836,26.9104061126709,-157.7233428955078,-102.01727294921876,3.68029260635376,6.728857517242432,6.410600662231445,-1.680000066757202,-2.7300000190734863,-0.2800000011920929,59.92646408081055,-151.50209045410156,120.63844299316406,8.717364311218262,-5.39122200012207,4.699671268463135,5.179999828338623,-35.90999984741211,118.2300033569336,149.85972595214844,-109.85073852539062,-207.9052734375
5299,1720095607.712283,9.380199432373049,-0.1938255578279495,2.931312322616577,17.079999923706055,-6.300000190734863,8.050000190734863,170.23696899414062,-221.1607360839844,165.5883026123047,-4.577633380889893,-8.640790939331055,1.3926725387573242,93.7300033569336,124.31999969482422,77.7699966430664,22.650001525878903,-6.0,13.200000762939451,9.688884735107422,1.356778860092163,1.462066888809204,3.849999904632568,-0.2800000011920929,-5.389999866485596,30.597267150878903,-158.84603881835938,-99.15689849853516,3.73293662071228,6.647498607635498,6.381886005401611,-1.190000057220459,-1.9600000381469729,0.4900000095367431,59.92646408081055,-151.50209045410156,120.63844299316406,8.217246055603027,-4.804959297180176,4.881532669067383,18.549999237060547,-36.81999969482422,113.88999938964844,150.6642608642578,-112.35698699951172,-206.67269897460935
5300,1720095607.686396,9.518988609313965,-0.1651106625795364,2.9265265464782715,17.850000381469727,-7.210000038146973,8.329999923706055,169.27947998046875,-221.5279541015625,165.5296173095703,-4.515417575836182,-8.083243370056152,1.1677391529083252,121.02999877929688,117.25,49.560001373291016,21.900001525878903,-5.25,13.950000762939451,9.633848190307615,1.4524952173233032,1.4405306577682495,6.300000190734863,-0.4200000166893005,-5.53000020980835,31.1204833984375,-161.05296325683594,-98.9908676147461,3.7831876277923584,6.621176719665527,6.257454872131348,-0.4200000166893005,-0.5600000023841858,1.3300000429153442,59.92646408081055,-151.50209045410156,120.63844299316406,8.281854629516602,-5.123216152191162,4.312020301818848,40.7400016784668,-39.47999954223633,109.5500030517578,150.893798828125,-112.66722869873048,-207.14979553222656
5301,1720095607.6864429,9.499845504760742,-0.0143574485555291,2.8978116512298584,18.34000015258789,-5.460000038146973,8.260000228881836,171.71043395996094,-221.12222290039065,167.54786682128906,-4.491488456726074,-7.303155422210693,0.8829830884933472,133.6300048828125,105.48999786376952,24.21999931335449,21.30000114440918,-6.150000095367432,10.5,9.559667587280272,1.5075321197509766,1.4022440910339355,8.819999694824219,-0.699999988079071,-5.110000133514404,29.776386260986328,-158.7037353515625,-98.9859848022461,3.6850783824920654,6.704928398132324,6.3412065505981445,-0.699999988079071,0.9100000262260436,2.309999942779541,59.92646408081055,-151.50209045410156,120.63844299316406,8.401500701904297,-5.4486517906188965,4.213911056518555,57.540000915527344,-39.40999984741211,106.54000091552734,149.9602813720703,-112.7496337890625,-205.33572387695312
5302,1720095607.686667,9.554882049560549,0.0622156113386154,2.840381860733032,18.270000457763672,-4.690000057220459,8.1899995803833,171.151611328125,-221.56309509277344,167.0529022216797,-4.142123699188232,-6.523067474365234,1.306527853012085,130.33999633789062,94.98999786376952,4.199999809265137,17.55000114440918,-4.800000190734863,9.450000762939451,9.538131713867188,1.6582852602005005,1.3926725387573242,10.920000076293944,-0.6299999952316284,-3.990000009536743,29.59781837463379,-158.9423370361328,-99.30745697021484,3.682685613632202,6.71928596496582,6.422565460205078,-1.5399999618530271,2.0299999713897705,3.3600001335144043,59.92646408081055,-151.50209045410156,120.63844299316406,8.24596118927002,-5.0418572425842285,4.393379211425781,62.720001220703125,-36.18999862670898,103.11000061035156,150.72581481933594,-116.584228515625,-204.89910888671875
5303,1720095607.712308,9.552489280700684,0.1244312226772308,2.802095413208008,17.219999313354492,-4.829999923706055,7.909999847412109,169.80873107910156,-222.4134521484375,165.50929260253906,-3.9530842304229736,-5.731014728546143,1.7372512817382812,119.9800033569336,85.88999938964844,-12.039999961853027,19.950000762939453,-5.100000381469727,6.150000095367432,9.590775489807127,1.7587873935699463,1.464459776878357,13.09000015258789,-0.6299999952316284,-2.5199999809265137,28.20487403869629,-158.20330810546875,-101.55027770996094,3.632434368133545,6.707321166992188,6.386671543121338,-1.5399999618530271,3.3600001335144043,4.130000114440918,59.92646408081055,-151.50209045410156,120.63844299316406,7.870274543762207,-4.055979251861572,4.718814849853516,57.400001525878906,-31.21999931335449,96.66999816894533,151.93812561035156,-114.92200469970705,-203.7714691162109
5304,1720095607.686468,9.480701446533203,0.1005021408200264,2.8930258750915527,14.210000038146973,-5.949999809265137,7.28000020980835,172.11851501464844,-221.19387817382807,167.39224243164062,-3.5654330253601074,-5.860231876373291,1.6654640436172483,107.4499969482422,79.30999755859375,-23.520000457763672,18.450000762939453,-3.750000238418579,4.800000190734863,9.679313659667969,1.93586266040802,1.4740313291549685,14.90999984741211,-0.2100000083446502,-1.0499999523162842,29.52628517150879,-159.9977264404297,-99.91461944580078,3.606112480163574,6.633141040802002,6.393850326538086,-0.6299999952316284,4.760000228881836,4.900000095367432,59.92646408081055,-151.50209045410156,120.63844299316406,7.382121562957764,-3.658756494522095,4.8097453117370605,51.59000015258789,-29.32999992370605,88.34000396728516,148.741943359375,-115.73326873779295,-206.2770233154297
5305,1720095607.686518,9.418486595153809,0.0622156113386154,2.902597427368164,12.18000030517578,-7.559999942779541,6.159999847412109,170.80860900878906,-222.0373077392578,166.83094787597656,-2.8834543228149414,-7.913347244262695,0.9763064980506896,77.69999694824219,69.30000305175781,-28.06999969482422,18.150001525878903,-4.350000381469727,2.5500001907348637,9.547703742980955,2.038757801055908,1.514710783958435,15.399999618530272,-0.1400000005960464,0.1400000005960464,30.09199905395508,-157.67572021484375,-97.26382446289062,3.5223608016967773,6.613997936248779,6.348385334014893,0.9100000262260436,6.300000190734863,5.460000038146973,59.92646408081055,-151.50209045410156,120.63844299316406,7.597483158111572,-4.249804973602295,4.16605281829834,50.959999084472656,-30.520000457763672,81.2699966430664,149.19374084472656,-114.4755859375,-205.4963531494141
5306,1720095607.6867678,9.449594497680664,0.0813588723540306,2.5269110202789307,11.829999923706056,-4.409999847412109,5.599999904632568,170.00315856933594,-220.57159423828125,167.09616088867188,-1.7252867221832275,-9.179195404052734,3.0940301418304443,60.54999923706055,64.75,-49.209999084472656,19.80000114440918,-3.150000095367432,0.75,9.430450439453123,2.1129379272460938,1.584105134010315,14.84000015258789,-0.4900000095367431,0.9100000262260436,29.115238189697266,-158.32679748535156,-99.05492401123048,3.479288339614868,6.707321166992188,6.372314453125,1.9600000381469729,7.699999809265137,5.880000114440918,59.92646408081055,-151.50209045410156,120.63844299316406,7.855917453765869,-4.718814849853516,4.02008581161499,34.09000015258789,-26.880001068115234,77.06999969482422,149.05023193359375,-116.86627960205078,-207.8817901611328
5307,1720095607.7124088,9.437629699707031,-0.1866468340158462,2.809274196624756,4.760000228881836,-10.359999656677246,5.599999904632568,170.5546417236328,-222.77256774902344,168.1041717529297,-1.8856115341186523,-8.217246055603027,4.03683614730835,89.31999969482422,65.80000305175781,-58.2400016784668,20.55000114440918,-5.400000095367432,1.5,9.456772804260254,2.2660839557647705,1.5745335817337036,14.770000457763672,-0.8400000333786011,1.3300000429153442,30.92186737060547,-158.09593200683594,-98.3251724243164,3.4457876682281494,6.82218074798584,6.374707221984863,2.1700000762939453,8.890000343322754,6.510000228881836,59.92646408081055,-151.50209045410156,120.63844299316406,7.563982486724853,-4.680528163909912,4.357485771179199,9.170000076293944,-20.020000457763672,74.12999725341797,147.00213623046875,-114.90970611572266,-206.53993225097656
5308,1720095607.6865668,9.554882049560549,0.1603248417377472,2.5197322368621826,6.650000095367432,-7.490000247955322,4.96999979019165,170.8660125732422,-220.98486328125,167.01712036132812,-2.3378713130950928,-6.886789321899414,2.871489763259888,122.70999908447266,53.060001373291016,-58.79999923706055,19.350000381469727,-4.200000286102295,-1.6500000953674316,9.523774147033691,2.359407424926758,1.6056413650512695,14.06999969482422,-0.9100000262260436,1.4700000286102295,29.123016357421875,-155.4051055908203,-98.39686584472656,3.342892646789551,6.82218074798584,6.398636341094971,2.450000047683716,9.65999984741211,7.0,59.92646408081055,-151.50209045410156,120.63844299316406,6.905932903289795,-4.824102878570557,4.639848709106445,-5.110000133514404,-19.809999465942383,69.58000183105469,150.63926696777344,-118.6831512451172,-204.4294891357422
5309,1720095607.686744,9.593168258666992,-0.0957163274288177,2.548447132110596,5.110000133514404,-9.239999771118164,4.96999979019165,169.59640502929688,-219.17953491210935,166.9250946044922,-1.0409150123596191,-7.848738670349121,2.3641932010650635,130.5500030517578,36.75,-53.68999862670898,19.950000762939453,-4.050000190734863,-3.6000001430511475,9.492666244506836,2.457516670227051,1.6534994840621948,12.31999969482422,-0.699999988079071,1.6100000143051147,31.122234344482425,-159.45266723632812,-98.1464614868164,3.2304258346557617,6.85807466506958,6.444101333618164,2.450000047683716,9.869999885559082,7.070000171661377,59.92646408081055,-151.50209045410156,120.63844299316406,6.946612358093262,-5.508474349975586,4.572847366333008,-6.369999885559082,-23.799999237060547,65.16999816894531,151.12185668945312,-119.29869079589844,-204.68202209472656
5310,1720095607.68692,9.648205757141112,0.067001424729824,2.6872358322143555,5.320000171661377,-9.170000076293944,4.480000019073486,169.85581970214844,-222.40353393554688,166.91259765625,0.4594383537769317,-8.793937683105469,4.180410385131836,111.02000427246094,31.920000076293945,-54.52999877929688,19.200000762939453,-3.150000095367432,-7.500000476837158,9.530953407287598,2.5340895652771,1.672642707824707,10.079999923706056,-0.2100000083446502,1.680000066757202,29.04413414001465,-159.1023406982422,-98.4909896850586,3.0940301418304443,6.865253448486328,6.470423698425293,2.309999942779541,9.730000495910645,6.720000267028809,59.92646408081055,-151.50209045410156,120.63844299316406,7.130866050720215,-6.226346969604492,4.405344009399414,0.5600000023841858,-21.350000381469727,61.52999877929688,146.11190795898438,-113.94264221191406,-204.960693359375
5311,1720095607.712561,9.612311363220217,-0.1722893863916397,2.615448474884033,3.920000076293945,-9.800000190734863,4.059999942779541,168.43548583984375,-221.1107177734375,166.16998291015625,-0.5360113978385925,-8.475680351257324,5.731014728546143,101.29000091552734,27.229999542236328,-59.43000030517578,18.900001525878903,-2.8500001430511475,-9.600000381469728,9.621883392333984,2.6034839153289795,1.6463208198547363,7.210000038146973,0.4200000166893005,1.75,30.2744140625,-157.99588012695312,-99.14421081542967,2.995920896530152,6.886789321899414,6.51110315322876,2.380000114440918,9.170000076293944,6.300000190734863,59.92646408081055,-151.50209045410156,120.63844299316406,6.925076007843018,-6.606819152832031,4.266555309295654,5.25,-14.84000015258789,58.79999923706055,146.57083129882812,-119.08313751220705,-207.13665771484372
5312,1720095607.686797,9.559667587280272,-0.1866468340158462,2.593912363052368,3.009999990463257,-10.56999969482422,3.640000104904175,170.84628295898438,-222.0293731689453,167.95358276367188,-1.32806396484375,-7.815237998962402,5.163895606994629,97.09000396728516,13.15999984741211,-59.56999969482422,20.25,-0.75,-10.800000190734863,9.70563507080078,2.5101606845855717,1.7085363864898682,3.220000028610229,1.190000057220459,2.240000009536743,30.773197174072266,-161.248291015625,-98.18205261230467,2.931312322616577,6.831752777099609,6.551782131195068,2.309999942779541,7.909999847412109,5.740000247955322,59.92646408081055,-151.50209045410156,120.63844299316406,6.384278774261475,-6.269419193267822,4.436451435089111,9.59000015258789,-15.050000190734863,54.459999084472656,148.27423095703125,-119.07500457763672,-204.4831085205078
5313,1720095607.686823,9.638633728027344,-0.2775773406028747,2.670485496520996,2.240000009536743,-9.239999771118164,3.3600001335144043,172.62376403808594,-222.84500122070312,169.33914184570312,-0.4235447347164154,-7.46587324142456,4.314413070678711,63.34999847412109,-3.0799999237060547,-58.79999923706055,21.450000762939453,0.1500000059604644,-15.15000057220459,9.696063995361328,2.486231565475464,1.7587873935699463,-1.2599999904632568,1.8899999856948853,3.150000095367432,29.33533477783203,-158.63900756835938,-99.81267547607422,2.86431097984314,6.829359531402588,6.558960914611816,2.450000047683716,6.369999885559082,4.900000095367432,59.92646408081055,-151.50209045410156,120.63844299316406,6.3340277671813965,-6.247882843017578,4.682920932769775,20.86000061035156,-20.649999618530277,49.34999847412109,146.89454650878906,-119.37356567382812,-204.80715942382807
5314,1720095607.6870408,9.703242301940918,-0.2536482512950897,2.479052782058716,2.240000009536743,-6.929999828338623,3.3600001335144043,170.51739501953125,-222.5006256103516,168.1526336669922,0.3230426013469696,-7.64773416519165,4.527381896972656,16.3799991607666,-3.220000028610229,-58.65999984741211,22.350000381469727,-1.350000023841858,-15.90000057220459,9.607525825500488,2.225404500961304,1.8640754222869875,-4.96999979019165,2.240000009536743,3.849999904632568,30.42165756225586,-160.68392944335938,-100.18244934082033,2.888240098953247,6.879610538482666,6.539817810058594,2.380000114440918,4.059999942779541,4.409999847412109,59.92646408081055,-151.50209045410156,120.63844299316406,6.585283279418945,-6.326848983764648,4.929390907287598,30.030000686645508,-20.3700008392334,47.040000915527344,146.9459228515625,-119.6425323486328,-204.43463134765625
5315,1720095607.7126818,9.617097854614258,-0.4450809061527252,2.457516670227051,0.4900000095367431,-6.440000057220459,3.220000028610229,170.0176239013672,-224.80877685546875,167.46644592285156,0.3493645787239074,-8.24596118927002,5.66879940032959,-19.46000099182129,-2.5199999809265137,-58.02999877929688,21.75,-0.6000000238418579,-16.5,9.55727481842041,2.0196144580841064,1.868861198425293,-5.670000076293945,2.380000114440918,4.480000019073486,30.07008934020996,-160.6003875732422,-98.34286499023438,2.98634934425354,6.975327014923096,6.503924369812012,1.2599999904632568,1.4700000286102295,4.059999942779541,59.92646408081055,-151.50209045410156,120.63844299316406,6.602033615112305,-6.061236381530762,4.6685638427734375,32.130001068115234,-13.720000267028809,44.72999954223633,146.57508850097656,-119.8428192138672,-204.32745361328125
5316,1720095607.686873,9.648205757141112,-0.466617077589035,2.5029819011688232,3.150000095367432,-7.420000076293945,3.150000095367432,168.66366577148438,-222.7413787841797,166.0195770263672,0.0047858161851763,-8.571396827697754,5.762122631072998,-28.06999969482422,-3.150000095367432,-54.810001373291016,21.600000381469727,-0.4500000178813934,-15.90000057220459,9.617097854614258,1.9693633317947388,1.7587873935699463,-5.389999866485596,2.7300000190734863,4.829999923706055,28.694236755371094,-161.4576873779297,-100.86878204345705,3.0677082538604736,6.903539657592773,6.468030452728272,-0.2800000011920929,-1.0499999523162842,4.130000114440918,59.92646408081055,-151.50209045410156,120.63844299316406,6.235918521881104,-5.606583595275879,4.735565185546875,28.90999984741211,-9.239999771118164,39.130001068115234,146.7382354736328,-120.44681549072266,-207.9402618408203
5317,1720095607.686945,9.641026496887209,-0.3350071310997009,2.3354783058166504,3.7100000381469727,-5.809999942779541,3.0799999237060547,171.4192352294922,-221.5855255126953,168.86953735351562,-0.3709007501602173,-8.478073120117188,5.4558305740356445,-23.450000762939453,-6.159999847412109,-51.2400016784668,21.900001525878903,0.3000000119209289,-16.80000114440918,9.538131713867188,1.9406484365463257,1.706143498420715,-6.300000190734863,3.289999961853028,4.690000057220459,29.3909912109375,-159.18685913085938,-100.47090911865234,3.141888380050659,6.90114688873291,6.513495922088623,-1.680000066757202,-3.640000104904175,4.059999942779541,59.92646408081055,-151.50209045410156,120.63844299316406,6.183274745941162,-5.61615514755249,4.800173759460449,24.920000076293945,-8.050000190734863,32.47999954223633,149.21365356445312,-122.67200469970705,-203.8653564453125
5318,1720095607.6871629,9.595561027526855,-0.3996156454086303,2.395301103591919,2.940000057220459,-6.090000152587891,3.150000095367432,170.25491333007812,-222.19729614257807,167.6474151611328,0.6819788217544556,-8.564218521118164,5.343363761901856,-26.670000076293945,-10.640000343322754,-45.220001220703125,24.150001525878903,-0.4500000178813934,-16.5,9.61949062347412,1.8233959674835205,1.6630711555480957,-6.929999828338623,3.920000076293945,4.409999847412109,29.03078269958496,-162.58477783203125,-101.6315689086914,3.273498296737671,6.829359531402588,6.556568145751953,-2.5199999809265137,-5.460000038146973,3.7799999713897705,59.92646408081055,-151.50209045410156,120.63844299316406,6.305312633514404,-5.860231876373291,4.632669925689697,18.82999992370605,-6.230000019073486,27.71999931335449,147.43531799316406,-122.4161148071289,-207.5930938720703
5319,1720095607.7128038,,,,,,,,,,1.1198810338974,-9.167230606079102,5.800409317016602,-36.18999862670898,-10.43000030517578,-46.54999923706055,22.80000114440918,0.3000000119209289,-16.350000381469727,9.63624095916748,1.706143498420715,1.6678569316864014,-6.019999980926514,4.829999923706055,3.990000009536743,29.84321594238281,-157.64932250976562,-98.51914978027344,3.316570520401001,6.635534286499023,6.544603824615479,-2.1700000762939453,-6.720000267028809,3.220000028610229,59.92646408081055,-151.50209045410156,120.63844299316406,6.235918521881104,-6.274205207824707,4.513024806976318,12.739999771118164,-3.009999990463257,24.71000099182129,146.86146545410156,-123.90049743652344,-207.01126098632807
5320,1720095607.687017,9.68649196624756,-0.3996156454086303,2.4120514392852783,4.550000190734863,-7.490000247955322,3.009999990463257,169.3561553955078,-220.19168090820312,167.44821166992188,0.4331163763999939,-7.891810894012451,4.529775142669678,-38.08000183105469,-6.300000190734863,-40.810001373291016,24.0,-1.6500000953674316,-16.5,9.53334617614746,1.6463208198547363,1.5984625816345217,-4.269999980926514,5.320000171661377,4.199999809265137,30.791173934936523,-161.80406188964844,-99.96292877197266,3.400322437286377,6.5804972648620605,6.484780788421631,-1.1200000047683716,-7.070000171661377,2.380000114440918,59.92646408081055,-151.50209045410156,120.63844299316406,5.903304100036621,-6.420172214508057,4.455595016479492,10.640000343322754,-1.4700000286102295,21.700000762939453,147.63107299804688,-119.25384521484376,-206.3329162597656
5321,1720095607.6870658,9.681706428527832,-0.3254354894161224,2.263690948486328,7.699999809265137,-4.829999923706055,3.0799999237060547,170.1166534423828,-219.78713989257807,167.7952117919922,0.2967205941677093,-7.717128753662109,3.697042942047119,-61.67000198364258,-8.75,-34.720001220703125,23.700000762939453,-1.2000000476837158,-16.05000114440918,9.576417922973633,1.6152129173278809,1.5506044626235962,-2.940000057220459,4.900000095367432,4.269999980926514,28.05028343200684,-158.15708923339844,-99.99900817871094,3.385964870452881,6.592461585998535,6.506317138671875,0.4200000166893005,-6.860000133514404,1.5399999618530271,59.92646408081055,-151.50209045410156,120.63844299316406,5.685549736022949,-6.520674705505371,4.630277156829834,12.25,-3.7799999713897705,18.40999984741211,146.03370666503906,-125.63933563232422,-208.99620056152344
5322,1720095607.687239,9.729564666748049,-0.3732936680316925,2.373764753341675,5.389999866485596,-5.740000247955322,3.3600001335144043,168.73388671875,-223.0063934326172,166.95343017578125,1.110309362411499,-9.554882049560549,4.233054637908936,-84.20999908447266,-14.5600004196167,-28.770000457763672,24.900001525878903,-0.6000000238418579,-15.90000057220459,9.638633728027344,1.5888910293579102,1.581712245941162,-1.680000066757202,4.480000019073486,4.130000114440918,27.602771759033203,-159.69363403320312,-101.81043243408205,3.433823108673096,6.714499950408936,6.482388019561768,1.4700000286102295,-7.139999866485596,1.190000057220459,59.92646408081055,-151.50209045410156,120.63844299316406,5.757337093353272,-6.484780788421631,4.584811687469482,16.030000686645508,-5.670000076293945,15.329999923706056,147.87075805664062,-123.52236938476562,-205.4089508056641
5323,1720095607.71288,9.743921279907228,-0.260826975107193,2.340264081954956,5.320000171661377,-3.3600001335144043,3.5,170.8527374267578,-220.4281005859375,168.93832397460938,1.177310824394226,-10.622118949890137,4.058372020721436,-78.4000015258789,-14.84000015258789,-21.350000381469727,24.600000381469727,-1.8000000715255735,-11.550000190734863,9.547703742980955,1.6008554697036743,1.6080342531204224,-0.4200000166893005,4.199999809265137,4.480000019073486,29.95955848693848,-162.98416137695312,-99.74598693847656,3.462538003921509,6.745607852935791,6.484780788421631,1.2599999904632568,-7.28000020980835,1.2599999904632568,59.92646408081055,-151.50209045410156,120.63844299316406,5.769301414489746,-6.353170871734619,4.429272651672363,17.010000228881836,-6.650000095367432,12.880000114440918,149.40887451171875,-124.30960083007812,-204.99806213378903
5324,1720095607.687115,9.719992637634276,-0.368507832288742,2.30915641784668,6.650000095367432,-1.6100000143051147,3.569999933242798,168.23126220703125,-219.1952362060547,168.19313049316406,0.6771929860115051,-10.361291885375977,3.625255823135376,-59.92000198364258,-15.470000267028809,-17.56999969482422,23.850000381469727,-3.0,-11.40000057220459,9.523774147033691,1.5864980220794678,1.6295703649520874,0.4900000095367431,3.640000104904175,5.110000133514404,30.588275909423828,-158.5681610107422,-98.26646423339844,3.5223608016967773,6.618783950805664,6.635534286499023,1.6100000143051147,-7.210000038146973,1.3300000429153442,59.92646408081055,-151.50209045410156,120.63844299316406,5.805194854736328,-6.456066131591797,4.419701099395752,13.789999961853027,-7.769999980926514,10.920000076293944,148.38851928710938,-121.77001190185548,-206.50364685058597
5325,1720095607.687264,9.719992637634276,-0.4474738240242004,2.3067634105682373,6.159999847412109,-1.9600000381469729,3.009999990463257,170.35427856445312,-221.4158172607422,167.9254608154297,0.4020085632801056,-10.272754669189451,3.668328046798706,-43.75,-17.850000381469727,-12.739999771118164,23.850000381469727,-1.2000000476837158,-11.850000381469728,9.516595840454102,1.543425679206848,1.6032484769821167,1.75,3.220000028610229,5.53000020980835,31.00741958618164,-161.5575408935547,-98.51881408691406,3.591755151748657,6.6786065101623535,6.582890033721924,3.430000066757202,-7.559999942779541,0.7699999809265137,59.92646408081055,-151.50209045410156,120.63844299316406,5.9200544357299805,-6.570925712585449,4.697278499603272,7.980000019073486,-7.699999809265137,9.380000114440918,145.27413940429688,-120.9641342163086,-205.77919006347656
5326,1720095607.6873548,9.72238540649414,-0.4402951002120971,2.333085298538208,4.96999979019165,0.0700000002980232,2.5899999141693115,168.0787811279297,-221.3080291748047,166.69813537597656,,,,,,,,,,9.578810691833496,1.5649619102478027,1.6558923721313477,4.059999942779541,3.150000095367432,5.740000247955322,30.387908935546875,-157.21142578125,-98.44517517089844,3.6372203826904297,6.759965419769287,6.3412065505981445,4.829999923706055,-7.139999866485596,0.9100000262260436,59.92646408081055,-151.50209045410156,120.63844299316406,5.802802085876465,-6.45845890045166,4.91264009475708,3.5,-5.53000020980835,8.329999923706055,146.78871154785156,-121.7563247680664,-206.0699462890625
5327,1720095607.712905,9.655384063720703,-0.4450809061527252,2.206261157989502,4.130000114440918,0.9100000262260436,2.6600000858306885,170.34014892578125,-221.41879272460935,167.5044708251953,0.6269419193267822,-9.70563507080078,3.527146577835083,-27.15999984741211,-19.8799991607666,-9.59000015258789,24.750001907348636,-3.6000001430511475,-12.750000953674316,9.51180934906006,1.584105134010315,1.761180400848389,5.740000247955322,3.150000095367432,5.949999809265137,28.82010841369629,-162.27056884765625,-100.59315490722656,3.618077039718628,6.585283279418945,6.231132507324219,6.860000133514404,-5.599999904632568,1.4700000286102295,59.92646408081055,-151.50209045410156,120.63844299316406,5.587440490722656,-6.506317138671875,4.82649564743042,3.150000095367432,-4.550000190734863,7.769999980926514,147.70468139648438,-120.83827209472656,-204.9320526123047
5328,1720095607.687187,9.614705085754396,-0.4570454359054565,2.1871180534362797,2.1700000762939453,0.0700000002980232,3.220000028610229,170.26651000976562,-220.31517028808597,169.94357299804688,0.9164838194847108,-9.023656845092772,3.105994701385498,-28.770000457763672,-16.170000076293945,-4.690000057220459,25.200000762939453,-3.6000001430511475,-9.600000381469728,9.57402515411377,1.6750357151031494,1.6941789388656616,6.510000228881836,3.009999990463257,5.179999828338623,29.4796142578125,-159.72776794433594,-100.1468276977539,3.642006158828736,6.64031982421875,6.286169528961182,10.079999923706056,-4.690000057220459,2.240000009536743,59.92646408081055,-151.50209045410156,120.63844299316406,5.649655818939209,-6.661856174468994,4.536953926086426,3.150000095367432,-5.949999809265137,7.28000020980835,147.6387481689453,-120.85215759277344,-206.89666748046875
5329,1720095607.712828,9.641026496887209,-0.4642241597175598,2.251726627349853,1.8899999856948853,-1.6100000143051147,3.640000104904175,170.91944885253906,-223.8936920166016,168.18336486816406,0.5503688454627991,-9.32277011871338,3.795152187347412,-34.29999923706055,-9.380000114440918,-3.569999933242798,23.55000114440918,-3.900000095367432,-7.500000476837158,9.600347518920898,1.7444299459457395,1.7348583936691284,6.369999885559082,2.799999952316284,4.130000114440918,29.33194351196289,-157.31959533691406,-100.27969360351562,3.632434368133545,6.913111686706543,6.262240409851074,11.6899995803833,-3.7799999713897705,2.5199999809265137,59.92646408081055,-151.50209045410156,120.63844299316406,,,,,,,,,
5330,1720095607.68731,9.693670272827148,-0.4522596299648285,2.311549186706543,2.309999942779541,-2.5899999141693115,3.5,170.2385711669922,-224.56124877929688,169.05088806152344,0.2464695274829864,-9.913818359375,3.795152187347412,-30.8700008392334,-7.349999904632568,3.289999961853028,24.150001525878903,-1.8000000715255735,-8.700000762939453,9.605133056640623,1.7635732889175415,1.742037057876587,5.389999866485596,2.6600000858306885,3.5,31.887454986572266,-159.04713439941406,-97.65914154052734,3.5534684658050537,7.004042148590088,6.228739738464356,11.619999885559082,-3.0799999237060547,2.5899999141693115,59.92646408081055,-151.50209045410156,120.63844299316406,5.766908645629883,-6.891575336456299,4.575240135192871,2.1700000762939453,-6.230000019073486,6.440000057220459,146.43936157226562,-119.31182098388672,-206.05484008789065
5331,1720095607.6875238,9.751100540161133,-0.5312256217002869,2.3282995223999023,2.799999952316284,-1.9600000381469729,3.009999990463257,168.78659057617188,-221.95494079589844,166.99928283691406,0.4522596299648285,-10.361291885375977,3.5391111373901367,-20.15999984741211,-10.43000030517578,2.5199999809265137,24.0,-3.450000047683716,-8.25,9.65299129486084,1.7444299459457395,1.7851094007492063,3.289999961853028,2.240000009536743,3.009999990463257,29.0158748626709,-159.10829162597656,-99.33296966552734,3.4960386753082275,6.94421911239624,6.159345626831055,11.6899995803833,-3.430000066757202,2.0299999713897705,59.92646408081055,-151.50209045410156,120.63844299316406,5.714264392852783,-6.975327014923096,4.733172416687012,2.5199999809265137,-5.179999828338623,5.53000020980835,149.88214111328125,-120.4071273803711,-204.30946350097656
5332,1720095607.687378,9.696063995361328,-0.5264397859573364,2.3522286415100098,4.550000190734863,-0.7699999809265137,2.7300000190734863,171.26553344726562,-220.49874877929688,168.92303466796875,0.339792937040329,-9.741528511047363,3.26392674446106,-2.870000123977661,-7.210000038146973,-0.5600000023841858,23.55000114440918,-4.200000286102295,-8.550000190734863,9.602740287780762,1.7252867221832275,1.801859736442566,1.190000057220459,2.0999999046325684,2.6600000858306885,31.967870712280277,-162.78961181640625,-99.1642074584961,3.5438969135284424,6.90114688873291,6.121058940887451,10.779999732971191,-3.640000104904175,1.6100000143051147,59.92646408081055,-151.50209045410156,120.63844299316406,5.738193511962891,-6.922683238983154,4.745136737823486,3.7100000381469727,-4.409999847412109,4.690000057220459,146.0158233642578,-120.56355285644533,-205.9935302734375
5333,1720095607.713019,9.71520709991455,-0.4857603311538696,2.301977634429932,4.760000228881836,0.0,2.799999952316284,169.06747436523438,-222.53414916992188,166.8947296142578,-0.0071787242777645,-8.856152534484863,3.2232472896575928,10.289999961853027,-5.53000020980835,-2.240000009536743,24.0,-3.450000047683716,-7.650000095367432,9.650598526000977,1.682214379310608,1.8592896461486816,0.3499999940395355,1.5399999618530271,1.399999976158142,28.55554962158203,-159.32740783691406,-101.89208221435548,3.486467123031616,6.867646217346191,6.077986717224121,10.289999961853027,-3.3600001335144043,1.4700000286102295,59.92646408081055,-151.50209045410156,120.63844299316406,5.79083776473999,-6.704928398132324,4.78342342376709,3.920000076293945,-4.760000228881836,3.990000009536743,148.00222778320312,-123.29368591308594,-206.49078369140625
5334,1720095607.687425,9.688884735107422,-0.5742979645729065,2.2469406127929688,4.059999942779541,-0.3499999940395355,3.0799999237060547,170.8166961669922,-223.3557281494141,167.43829345703125,0.0598227009177207,-9.116979598999023,3.295034408569336,15.609999656677246,-5.389999866485596,-2.450000047683716,24.150001525878903,-2.5500001907348637,-8.25,9.717599868774414,1.70135760307312,1.847325086593628,0.4200000166893005,1.680000066757202,0.1400000005960464,31.93533515930176,-162.51666259765625,-98.97542572021484,3.5391111373901367,7.018399238586426,6.128237724304199,10.149999618530272,-3.5,1.5399999618530271,59.92646408081055,-151.50209045410156,120.63844299316406,5.826731204986572,-6.750393867492676,4.788208961486816,3.430000066757202,-5.880000114440918,3.430000066757202,147.26055908203125,-123.69425964355467,-206.2764587402344
5335,1720095607.6875978,9.736742973327637,-0.6173703074455261,2.3641932010650635,3.7799999713897705,0.1400000005960464,2.940000057220459,169.66355895996094,-222.365234375,167.3412322998047,0.3206496834754944,-9.387378692626951,3.823867082595825,17.079999923706055,-4.409999847412109,-3.569999933242798,25.200000762939453,-2.25,-9.0,9.588382720947266,1.6295703649520874,1.9406484365463257,0.2100000083446502,2.380000114440918,-0.7699999809265137,29.788875579833984,-155.7810516357422,-98.1875991821289,3.5726118087768555,7.032756805419922,6.350778102874756,10.850000381469728,-4.340000152587891,1.8899999856948853,59.92646408081055,-151.50209045410156,120.63844299316406,5.89373254776001,-6.908325672149658,4.733172416687012,2.5899999141693115,-5.179999828338623,3.150000095367432,145.26255798339844,-122.84627532958984,-208.07534790039065
5336,1720095607.68745,9.703242301940918,-0.4929390549659729,2.3211207389831543,5.179999828338623,2.940000057220459,2.380000114440918,170.31057739257812,-222.74514770507807,166.9891815185547,0.2584340870380401,-9.79177951812744,4.058372020721436,25.479999542236328,-2.7300000190734863,-4.96999979019165,23.25,-3.450000047683716,-9.15000057220459,9.590775489807127,1.416601538658142,1.9478272199630735,-0.2800000011920929,3.0799999237060547,-1.4700000286102295,30.62420654296875,-160.1605224609375,-97.98822784423828,3.56782603263855,7.166759967803955,6.322062969207764,11.34000015258789,-5.740000247955322,1.680000066757202,59.92646408081055,-151.50209045410156,120.63844299316406,5.805194854736328,-6.860467433929443,4.68770694732666,1.3300000429153442,-3.920000076293945,2.6600000858306885,148.14146423339844,-120.62410736083984,-203.0745849609375
5337,1720095607.713091,9.597954750061035,-0.4283305406570434,2.242154836654663,5.179999828338623,3.569999933242798,1.9600000381469729,168.60801696777344,-222.1935272216797,166.6778106689453,-0.0957163274288177,-9.751100540161133,4.008121013641357,39.060001373291016,-3.569999933242798,-6.929999828338623,26.100000381469727,-2.25,-8.700000762939453,9.626668930053713,1.2730270624160769,2.010042905807495,1.8200000524520876,4.690000057220459,-0.3499999940395355,32.70790481567383,-159.4693145751953,-99.00114440917967,3.601326704025269,7.231368064880371,6.298134326934815,11.0600004196167,-7.070000171661377,1.5399999618530271,59.92646408081055,-151.50209045410156,120.63844299316406,5.769301414489746,-6.757572650909424,4.769065856933594,0.7699999809265137,-4.059999942779541,2.0999999046325684,148.78628540039062,-122.88418579101562,-205.442138671875
5338,1720095607.687548,9.657776832580566,-0.4594383537769317,2.2660839557647705,3.849999904632568,2.0999999046325684,1.4700000286102295,168.32241821289062,-221.6153106689453,166.6420440673828,0.1938255578279495,-9.093050956726074,3.7209720611572266,48.86000061035156,-6.090000152587891,-10.640000343322754,26.100000381469727,-2.25,-10.050000190734863,9.741528511047363,1.1964540481567385,2.086615800857544,7.349999904632568,6.650000095367432,0.8400000333786011,30.37027740478516,-160.4149627685547,-100.5549774169922,3.646791934967041,7.140437602996826,6.05884313583374,10.289999961853027,-7.559999942779541,1.399999976158142,59.92646408081055,-151.50209045410156,120.63844299316406,5.836302757263184,-6.745607852935791,4.706850051879883,1.0499999523162842,-5.599999904632568,1.75,145.1153106689453,-120.15821838378906,-207.03712463378903
5339,1720095607.6877508,9.674527168273926,-0.5336185097694397,2.3857293128967285,4.059999942779541,1.399999976158142,0.699999988079071,169.83094787597656,-223.7289276123047,166.53762817382812,0.5001177787780762,-8.021027565002441,4.161267280578613,44.59000015258789,-3.640000104904175,-9.9399995803833,26.250001907348636,-1.8000000715255735,-11.550000190734863,9.88031768798828,1.074415683746338,2.0220072269439697,13.020000457763672,6.300000190734863,2.6600000858306885,30.899526596069336,-161.3004608154297,-100.57530975341795,3.701828718185425,7.080615043640137,6.039700031280518,9.380000114440918,-7.699999809265137,1.680000066757202,59.92646408081055,-151.50209045410156,120.63844299316406,5.860231876373291,-6.506317138671875,4.888711452484131,1.3300000429153442,-3.849999904632568,-0.1400000005960464,146.96685791015625,-121.797607421875,-206.9195709228516
5340,1720095607.6876228,9.648205757141112,-0.5958341360092163,2.3976938724517822,4.829999923706055,2.309999942779541,-0.0700000002980232,169.42001342773438,-217.5379638671875,168.61912536621094,0.033500712364912,-8.468502044677734,4.230661392211914,27.15999984741211,-0.4900000095367431,-7.699999809265137,25.500001907348636,-1.950000047683716,-13.050000190734863,9.724778175354004,1.304134964942932,2.3211207389831543,15.539999961853027,7.490000247955322,6.090000152587891,29.92024040222168,-160.07235717773438,-100.4912338256836,3.828652858734131,7.394085884094238,6.252668857574463,8.119999885559082,-9.100000381469728,2.309999942779541,59.92646408081055,-151.50209045410156,120.63844299316406,5.829123973846436,-6.226346969604492,4.871960639953613,0.8400000333786011,-0.9100000262260436,-3.289999961853028,148.59402465820312,-122.84587860107422,-205.01351928710935
5341,1720095607.7132638,9.710420608520508,-0.619763195514679,2.3354783058166504,4.900000095367432,3.3600001335144043,-0.0700000002980232,169.4340362548828,-222.05499267578125,167.81832885742188,0.0311078056693077,-9.411307334899902,4.472345352172852,17.989999771118164,-4.480000019073486,-9.800000190734863,25.200000762939453,-1.0500000715255735,-12.15000057220459,9.545310020446776,1.464459776878357,2.163188934326172,16.940000534057617,9.869999885559082,9.9399995803833,28.794597625732425,-155.11566162109375,-100.86671447753906,4.053586483001709,7.781737327575684,6.312491416931152,6.789999961853027,-11.130000114440918,3.430000066757202,59.92646408081055,-151.50209045410156,120.63844299316406,5.795623302459717,-6.338813304901123,4.623098373413086,-3.150000095367432,-0.1400000005960464,-5.039999961853027,148.3350372314453,-119.3419952392578,-203.8299102783203
5342,1720095607.6876729,9.648205757141112,-0.5742979645729065,2.431194543838501,3.430000066757202,3.289999961853028,0.1400000005960464,170.00096130371094,-222.93255615234372,168.92063903808594,0.2919347882270813,-8.674291610717773,4.589597702026367,11.34000015258789,-4.96999979019165,-6.090000152587891,25.200000762939453,0.0,-14.40000057220459,9.609918594360352,1.148595929145813,2.115330696105957,15.399999618530272,9.65999984741211,13.720000267028809,28.943477630615234,-160.7234344482422,-102.28233337402344,4.158874034881592,7.994706153869629,6.4393157958984375,2.0999999046325684,-10.359999656677246,2.870000123977661,59.92646408081055,-151.50209045410156,120.63844299316406,5.9200544357299805,-6.590068817138672,4.778637409210205,-8.1899995803833,0.8400000333786011,-5.949999809265137,148.33920288085938,-124.14087677001952,-206.0824737548828
5343,1720095607.6878998,9.554882049560549,-0.6460852026939392,2.5316967964172363,3.5,1.8899999856948853,0.5600000023841858,170.1059112548828,-221.10952758789065,167.8412322998047,0.4259376525878906,-8.755650520324707,4.539346694946289,-9.730000495910645,-4.130000114440918,-5.110000133514404,26.400001525878903,-2.25,-13.950000762939451,,,,,,,,,,4.369450092315674,8.236390113830566,6.109094142913818,-1.0499999523162842,-7.420000076293945,2.1700000762939453,59.92646408081055,-151.50209045410156,120.63844299316406,5.6951212882995605,-6.4321370124816895,5.001177787780762,-5.740000247955322,3.0799999237060547,-8.260000228881836,146.85848999023438,-122.30120086669922,-206.30718994140625
5344,1720095607.6876988,9.559667587280272,-0.6054057478904724,2.550840139389038,5.039999961853027,0.6299999952316284,0.699999988079071,170.77125549316406,-226.28536987304688,165.65760803222656,0.4594383537769317,-8.944690704345703,4.508238792419434,-30.380001068115234,-1.3300000429153442,1.75,25.500001907348636,-1.8000000715255735,-13.350000381469728,9.885103225708008,0.9380199909210204,2.156010150909424,9.029999732971191,9.800000190734863,15.119999885559082,31.55300521850586,-160.0791015625,-99.94261932373048,4.4867024421691895,8.052135467529297,5.7932305335998535,-1.5399999618530271,-5.880000114440918,0.1400000005960464,59.92646408081055,-151.50209045410156,120.63844299316406,5.611369609832764,-6.130630493164063,4.78342342376709,-1.3300000429153442,3.009999990463257,-11.480000495910645,149.61570739746094,-124.0650634765625,-203.8346099853516
5345,1720095607.687876,,,,,,,,,,0.4402951002120971,-11.299311637878418,4.017692565917969,-25.6200008392334,-1.5399999618530271,5.670000076293945,25.650001525878903,-2.400000095367432,-13.350000381469728,9.870745658874512,0.7609447836875916,2.251726627349853,8.050000190734863,10.850000381469728,15.190000534057615,29.218772888183597,-162.3441925048828,-101.02943420410156,4.654206275939941,7.989920139312744,5.963127136230469,0.9100000262260436,-11.199999809265137,0.8400000333786011,59.92646408081055,-151.50209045410156,120.63844299316406,5.733407974243164,-5.7238359451293945,4.618312835693359,-3.0799999237060547,2.940000057220459,-16.100000381469727,147.56642150878906,-118.4281005859375,-204.7842559814453
5346,1720095607.687799,9.58359718322754,-0.5479759573936462,2.5101606845855717,6.369999885559082,1.2599999904632568,0.8400000333786011,170.26739501953125,-219.2746124267578,168.44578552246094,0.6939433217048645,-11.100700378417969,4.4795241355896,6.720000267028809,0.2100000083446502,9.100000381469728,25.200000762939453,-2.1000001430511475,-12.600000381469728,10.01671314239502,0.7896596789360046,2.3976938724517822,16.520000457763672,13.020000457763672,16.450000762939453,29.624786376953125,-159.7760009765625,-101.97876739501952,4.7666730880737305,8.494823455810547,6.192846298217773,-7.630000114440918,-10.359999656677246,-1.6100000143051147,59.92646408081055,-151.50209045410156,120.63844299316406,5.984663009643555,-5.673584938049316,4.606348037719727,-7.559999942779541,3.009999990463257,-20.649999618530277,148.1478271484375,-123.0620346069336,-207.1516265869141
5347,1720095607.687979,9.545310020446776,-0.4379021823406219,2.565197467803955,4.340000152587891,1.2599999904632568,1.5399999618530271,172.505126953125,-223.9103240966797,167.32867431640625,0.2656128108501434,-7.8463454246521,4.484309673309326,9.100000381469728,5.179999828338623,8.819999694824219,24.900001525878903,-0.6000000238418579,-10.950000762939451,9.964069366455078,0.9380199909210204,2.136866807937622,22.81999969482422,15.960000038146973,17.56999969482422,31.01807975769043,-164.2743682861328,-103.62661743164062,4.862389087677002,7.987527370452881,6.216775417327881,-23.309999465942383,-10.850000381469728,-9.59000015258789,59.92646408081055,-151.50209045410156,120.63844299316406,6.104308605194092,-5.867410659790039,4.534560680389404,-12.600000381469728,4.96999979019165,-24.63999938964844,148.23350524902344,-122.00364685058594,-206.12347412109372
5348,1720095607.6878278,9.521381378173828,-0.5264397859573364,2.663306713104248,3.5,0.2100000083446502,2.1700000762939453,169.80958557128906,-221.8537139892578,167.8514862060547,0.3062922358512878,-8.320141792297363,4.005728244781494,-13.230000495910645,3.009999990463257,11.550000190734863,25.650001525878903,-1.6500000953674316,-11.550000190734863,9.77263641357422,1.0480937957763672,2.060293912887573,23.3799991607666,17.010000228881836,20.020000457763672,29.560489654541016,-162.70960998535156,-104.3207778930664,4.666170597076416,7.769772529602051,6.001413345336914,-27.790000915527344,-9.869999885559082,-13.020000457763672,59.92646408081055,-151.50209045410156,120.63844299316406,6.066021919250488,-5.915268898010254,4.611134052276611,-16.799999237060547,6.440000057220459,-28.630001068115234,150.8511199951172,-122.6777572631836,-203.1764068603516
5349,1720095607.688017,9.502238273620604,-0.3565433025360107,2.5604116916656494,2.7300000190734863,0.3499999940395355,1.9600000381469729,170.0218963623047,-225.087646484375,166.43568420410156,0.6700142621994019,-8.994941711425781,4.362271308898926,-18.82999992370605,1.6100000143051147,12.109999656677246,24.600000381469727,-2.1000001430511475,-11.850000381469728,9.736742973327637,1.1677391529083252,2.0746512413024902,19.11000061035156,18.479999542236328,22.61000061035156,29.5952091217041,-161.10235595703125,-102.49405670166016,4.898283004760742,7.092579364776611,5.690335273742676,-27.440000534057617,-8.680000305175781,-20.71999931335449,59.92646408081055,-151.50209045410156,120.63844299316406,6.247882843017578,-5.903304100036621,4.553704261779785,-20.649999618530277,5.809999942779541,-31.07999992370605,147.83023071289062,-117.41099548339844,-204.605712890625
5350,1720095607.687924,9.507023811340332,-0.2129688262939453,2.5316967964172363,1.6100000143051147,0.7699999809265137,1.75,170.2296142578125,-223.8025665283203,166.10134887695312,0.8159816861152649,-9.57402515411377,4.364664554595947,-10.920000076293944,0.0700000002980232,12.8100004196167,24.150001525878903,-2.1000001430511475,-12.0,9.777422904968262,1.1629533767700195,2.156010150909424,12.8100004196167,18.82999992370605,24.780000686645508,28.934057235717773,-160.7254180908203,-102.56299591064452,4.611134052276611,6.582890033721924,5.403186321258545,-24.290000915527344,-4.480000019073486,-25.479999542236328,59.92646408081055,-151.50209045410156,120.63844299316406,6.410600662231445,-5.6951212882995605,4.393379211425781,-24.920000076293945,4.480000019073486,-33.11000061035156,149.169189453125,-120.04108428955078,-205.92202758789065
5351,1720095607.6881368,9.564454078674316,-0.1890397369861602,2.514946460723877,0.8400000333786011,-0.1400000005960464,1.3300000429153442,169.24090576171875,-222.5764312744141,165.90476989746094,0.9786993861198424,-10.014320373535156,4.178017616271973,-3.569999933242798,0.1400000005960464,15.470000267028809,25.200000762939453,-3.450000047683716,-12.0,9.729564666748049,1.0552724599838257,2.3211207389831543,11.40999984741211,19.739999771118164,27.51000022888184,32.5274772644043,-165.82821655273438,-101.38883209228516,4.446023464202881,7.444336891174316,5.809980869293213,-21.700000762939453,-1.190000057220459,-29.32999992370605,59.92646408081055,-151.50209045410156,120.63844299316406,6.606819152832031,-5.611369609832764,4.335949420928955,-34.58000183105469,3.990000009536743,-36.68000030517578,148.34271240234375,-120.9403076171875,-204.39366149902344
5352,1720095607.6879468,9.64341926574707,-0.3445787727832794,2.6513421535491943,-0.0700000002980232,-0.3499999940395355,0.2100000083446502,170.20692443847656,-223.24777221679688,167.7418975830078,0.5384043455123901,-9.418486595153809,4.194767951965332,-4.130000114440918,0.0700000002980232,20.440000534057617,23.55000114440918,-0.3000000119209289,-11.550000190734863,9.600347518920898,1.0002355575561523,2.3378713130950928,11.34000015258789,21.06999969482422,30.450000762939453,28.859561920166016,-160.18153381347656,-102.46607971191406,4.278519630432129,7.470659255981445,5.774087429046631,-26.600000381469727,-1.1200000047683716,-27.790000915527344,59.92646408081055,-151.50209045410156,120.63844299316406,6.652284622192383,-5.817159652709961,4.321591854095459,-44.869998931884766,5.949999809265137,-40.459999084472656,149.39781188964844,-121.39187622070312,-204.90133666992188
5353,1720095607.688113,9.569239616394045,-0.4857603311538696,2.759022951126098,0.3499999940395355,-0.4200000166893005,-0.9800000190734864,170.64886474609375,-222.2719268798828,167.07080078125,0.4474738240242004,-10.466580390930176,4.173231601715088,-5.110000133514404,-0.699999988079071,27.649999618530277,25.05000114440918,-3.150000095367432,-9.300000190734863,9.6697416305542,0.952377438545227,2.3163349628448486,9.800000190734863,21.280000686645508,31.850000381469727,29.13520812988281,-165.56163024902344,-105.10386657714844,4.206732273101807,7.269654750823975,6.022949695587158,-33.529998779296875,-1.2599999904632568,-27.09000015258789,59.92646408081055,-151.50209045410156,120.63844299316406,6.604426383972168,-5.965519905090332,4.137338161468506,-48.02000045776367,9.730000495910645,-44.02999877929688,150.13816833496094,-122.31171417236328,-204.7889709472656
