relative_id,timestamp,CHS_IMU9_Acc_X,CHS_IMU9_Acc_Y,CHS_IMU9_Acc_Z,CHS_IMU9_Gyro_X,CHS_IMU9_Gyro_Y,CHS_IMU9_Gyro_Z,CHS_IMU9_Magn_X,CHS_IMU9_Magn_Y,CHS_IMU9_Magn_Z,RF_IMU9_Acc_X,RF_IMU9_Acc_Y,RF_IMU9_Acc_Z,RF_IMU9_Gyro_X,RF_IMU9_Gyro_Y,RF_IMU9_Gyro_Z,RF_IMU9_Magn_X,RF_IMU9_Magn_Y,RF_IMU9_Magn_Z,LU_IMU9_Acc_X,LU_IMU9_Acc_Y,LU_IMU9_Acc_Z,LU_IMU9_Gyro_X,LU_IMU9_Gyro_Y,LU_IMU9_Gyro_Z,LU_IMU9_Magn_X,LU_IMU9_Magn_Y,LU_IMU9_Magn_Z,LF_IMU9_Acc_X,LF_IMU9_Acc_Y,LF_IMU9_Acc_Z,LF_IMU9_Gyro_X,LF_IMU9_Gyro_Y,LF_IMU9_Gyro_Z,LF_IMU9_Magn_X,LF_IMU9_Magn_Y,LF_IMU9_Magn_Z,RU_IMU9_Acc_X,RU_IMU9_Acc_Y,RU_IMU9_Acc_Z,RU_IMU9_Gyro_X,RU_IMU9_Gyro_Y,RU_IMU9_Gyro_Z,RU_IMU9_Magn_X,RU_IMU9_Magn_Y,RU_IMU9_Magn_Z
4184,1720095568.723419,9.40891456604004,-0.4737958014011383,2.797309637069702,4.409999847412109,-3.990000009536743,0.4900000095367431,169.91368103027344,-220.59043884277344,164.42990112304688,4.7666730880737305,-7.609447956085205,4.632669925689697,-0.699999988079071,-1.8899999856948853,-1.190000057220459,44.10000228881836,10.5,-17.25,9.545310020446776,2.206261157989502,1.9023619890213013,-0.3499999940395355,0.4200000166893005,1.680000066757202,28.660165786743164,-153.7450408935547,-99.08080291748048,3.912404775619507,7.051900386810303,5.652049064636231,0.0,-0.3499999940395355,0.7699999809265137,59.92646408081055,-151.50209045410156,120.63844299316406,9.605133056640623,-2.6561279296875,1.7085363864898682,-3.0799999237060547,0.4900000095367431,1.190000057220459,161.923095703125,-97.60344696044922,-187.31051635742188
4185,1720095568.74906,9.468737602233888,-0.5814766883850098,2.938491106033325,3.430000066757202,-4.340000152587891,0.1400000005960464,169.6700439453125,-220.28317260742188,164.48599243164062,4.781030178070068,-7.57834005355835,4.553704261779785,-0.699999988079071,-2.1700000762939453,-1.190000057220459,45.45000076293945,11.550000190734863,-16.650001525878906,9.502238273620604,2.21343994140625,1.86646831035614,-0.7699999809265137,0.0,1.680000066757202,28.892963409423828,-159.89471435546875,-100.31267547607422,3.9578700065612793,7.130866050720215,5.692728519439697,-0.1400000005960464,-0.2800000011920929,0.699999988079071,59.92646408081055,-151.50209045410156,120.63844299316406,9.530953407287598,-2.692021608352661,1.739644169807434,-2.309999942779541,0.0,0.6299999952316284,162.74989318847656,-100.9443588256836,-188.8895721435547
4186,1720095568.774701,9.54052448272705,-0.5431901216506958,2.8858470916748047,3.7100000381469727,-2.7300000190734863,-0.1400000005960464,170.22755432128906,-221.1627197265625,165.30764770507812,4.771458625793457,-7.542446136474609,4.520203590393066,-1.190000057220459,-1.9600000381469729,-0.9100000262260436,46.05000305175781,10.950000762939451,-16.80000114440918,9.420879364013672,2.163188934326172,1.837753415107727,-2.0299999713897705,-0.2800000011920929,1.680000066757202,28.998353958129883,-157.7918243408203,-100.22097778320312,3.9387266635894775,7.138044834136963,5.6951212882995605,-0.6299999952316284,-0.2100000083446502,0.699999988079071,59.92646408081055,-151.50209045410156,120.63844299316406,9.451987266540527,-2.6680924892425537,1.7324655055999756,-1.190000057220459,-0.4200000166893005,0.2800000011920929,161.8263702392578,-95.74411010742188,-188.241943359375
4187,1720095568.800342,9.48788070678711,-0.5168681740760803,2.7853450775146484,3.220000028610229,-0.9100000262260436,-0.2800000011920929,170.509765625,-220.4215240478516,164.87640380859375,,,,,,,,,,9.373021125793455,2.0985803604125977,1.890397429466248,-2.0299999713897705,-0.2800000011920929,1.399999976158142,29.026613235473636,-157.785888671875,-99.37899780273438,3.926762104034424,7.042328357696533,5.781265735626221,-0.7699999809265137,-0.2100000083446502,0.699999988079071,59.92646408081055,-151.50209045410156,120.63844299316406,9.463951110839844,-2.6752712726593018,1.7516087293624878,-0.3499999940395355,-0.6299999952316284,0.6299999952316284,161.9662628173828,-101.07398223876952,-188.7671356201172
4188,1720095568.815367,9.473523139953612,-0.5431901216506958,2.8355960845947266,3.009999990463257,-2.1700000762939453,-0.1400000005960464,170.26654052734375,-219.83436584472656,166.1035919189453,4.792994976043701,-7.530481815338135,4.489095687866211,-2.0299999713897705,-1.75,-0.7699999809265137,44.85000228881836,9.300000190734863,-17.700000762939453,9.451987266540527,2.1033661365509038,1.7875022888183594,-0.9100000262260436,0.2100000083446502,1.0499999523162842,29.9143180847168,-156.87376403808594,-99.08307647705078,3.9650487899780273,7.130866050720215,5.683156490325928,-0.1400000005960464,-0.1400000005960464,0.7699999809265137,59.92646408081055,-151.50209045410156,120.63844299316406,9.449594497680664,-2.6680924892425537,1.746822953224182,0.0,-0.8400000333786011,1.1200000047683716,162.62095642089844,-103.05221557617188,-189.68292236328125
4189,1720095568.841008,9.523774147033691,-0.5503688454627991,2.830810308456421,3.150000095367432,-2.380000114440918,-0.2100000083446502,169.04689025878906,-224.138427734375,165.48899841308594,4.807352542877197,-7.619019508361816,4.508238792419434,-2.0999999046325684,-1.680000066757202,-0.9100000262260436,44.10000228881836,10.5,-18.0,9.518988609313965,2.1751534938812256,1.7252867221832275,-0.2800000011920929,0.6299999952316284,0.9100000262260436,30.076684951782227,-153.99832153320312,-99.97630310058594,3.9817991256713863,7.154795169830322,5.66879940032959,-0.0700000002980232,-0.1400000005960464,0.9100000262260436,59.92646408081055,-151.50209045410156,120.63844299316406,9.492666244506836,-2.648949146270752,1.7228938341140747,0.0700000002980232,-0.5600000023841858,1.4700000286102295,159.84841918945312,-98.09173583984376,-191.0279998779297
4190,1720095568.8666492,9.504631042480469,-0.5192610621452332,2.8762755393981934,2.5899999141693115,-1.8200000524520876,-0.1400000005960464,171.4684295654297,-223.7346649169922,167.22657775878906,4.761887073516846,-7.705163955688477,4.515417575836182,-1.9600000381469729,-1.2599999904632568,-1.0499999523162842,45.30000305175781,10.800000190734863,-15.90000057220459,9.51180934906006,2.156010150909424,1.7372512817382812,0.4900000095367431,0.9800000190734864,1.3300000429153442,27.643089294433597,-157.0448760986328,-101.3411636352539,3.94111967086792,7.147616386413574,5.630512714385986,-0.4200000166893005,-0.4200000166893005,1.1200000047683716,59.92646408081055,-151.50209045410156,120.63844299316406,9.514202117919922,-2.5747690200805664,1.742037057876587,-0.3499999940395355,0.0700000002980232,1.680000066757202,161.459716796875,-100.74327087402344,-190.3873443603516
4191,1720095568.89229,9.499845504760742,-0.521653950214386,2.8690967559814453,2.309999942779541,-1.6100000143051147,0.2100000083446502,169.6040802001953,-220.77783203125,166.36135864257812,4.804959297180176,-7.709949970245361,4.50584602355957,-1.1200000047683716,-1.399999976158142,-1.2599999904632568,44.400001525878906,10.800000190734863,-16.950000762939453,9.492666244506836,2.1895108222961426,1.720500946044922,1.1200000047683716,0.7699999809265137,1.6100000143051147,28.473386764526367,-157.18521118164062,-101.23141479492188,3.979406118392944,7.126080513000488,5.719050407409668,-1.0499999523162842,-0.6299999952316284,1.2599999904632568,59.92646408081055,-151.50209045410156,120.63844299316406,9.48788070678711,-2.5747690200805664,1.7803236246109009,-0.8400000333786011,0.1400000005960464,1.5399999618530271,159.51394653320312,-99.6045150756836,-189.4715118408203
4192,1720095588.538915,9.475915908813477,-0.5623334050178528,2.8906328678131104,1.9600000381469729,-2.450000047683716,0.2100000083446502,170.67112731933594,-223.10659790039065,164.2591552734375,4.7666730880737305,-7.57834005355835,4.560883045196533,-0.4200000166893005,-1.399999976158142,-1.3300000429153442,44.25,11.40000057220459,-17.400001525878906,9.502238273620604,2.227797508239746,1.7851094007492063,0.6299999952316284,0.2800000011920929,1.6100000143051147,30.926145553588867,-158.3748016357422,-99.3559341430664,3.9578700065612793,7.056685924530029,5.750158309936523,-1.399999976158142,-0.9100000262260436,1.2599999904632568,59.92646408081055,-151.50209045410156,120.63844299316406,9.45438003540039,-2.617841482162476,1.749215841293335,-1.4700000286102295,-0.0700000002980232,1.190000057220459,159.93704223632812,-98.63264465332033,-190.7039337158203
4193,1720095588.5393429,9.552489280700684,-0.5599405169487,2.814059972763061,3.430000066757202,-2.7300000190734863,0.0700000002980232,171.51303100585938,-221.3647918701172,166.66506958007812,4.7666730880737305,-7.590304374694824,4.568061351776123,-0.5600000023841858,-1.5399999618530271,-1.2599999904632568,44.400001525878906,10.65000057220459,-16.5,9.466344833374023,2.129688262939453,1.770751953125,-0.8400000333786011,-0.2800000011920929,1.2599999904632568,29.84453010559082,-156.32888793945312,-98.84583282470705,3.962655782699585,7.051900386810303,5.757337093353272,-1.1200000047683716,-0.9100000262260436,1.0499999523162842,59.92646408081055,-151.50209045410156,120.63844299316406,9.57402515411377,-2.67287826538086,1.749215841293335,-1.399999976158142,-0.3499999940395355,1.0499999523162842,159.5987548828125,-99.10588073730467,-190.78553771972656
4194,1720095588.5392408,9.430450439453123,-0.4331163763999939,2.928919553756714,3.289999961853028,-3.0799999237060547,0.2800000011920929,171.85635375976562,-225.13070678710935,166.83631896972656,4.733172416687012,-7.57834005355835,4.52259635925293,-0.9100000262260436,-1.680000066757202,-1.399999976158142,44.70000076293945,9.600000381469728,-17.700000762939453,9.418486595153809,2.108151912689209,1.837753415107727,-1.9600000381469729,-0.4200000166893005,1.0499999523162842,29.56616973876953,-157.62884521484375,-100.616455078125,3.924369335174561,6.99686336517334,5.728621959686279,-0.2800000011920929,-0.8400000333786011,0.5600000023841858,59.92646408081055,-151.50209045410156,120.63844299316406,9.552489280700684,-2.6752712726593018,1.7970739603042605,-0.6299999952316284,-0.4200000166893005,1.1200000047683716,159.42489624023438,-99.3434829711914,-190.96669006347656
4195,1720095588.5648818,,,,,,,,,,4.709243297576904,-7.547232151031494,4.541739463806152,-1.2599999904632568,-1.9600000381469729,-1.3300000429153442,44.25,10.800000190734863,-16.350000381469727,9.449594497680664,2.1249024868011475,1.8832186460494995,-1.1200000047683716,-0.3499999940395355,0.9800000190734864,30.745933532714844,-155.69369506835938,-99.30001068115234,3.9578700065612793,7.037542819976807,5.702300071716309,0.1400000005960464,-0.7699999809265137,0.2100000083446502,59.92646408081055,-151.50209045410156,120.63844299316406,9.468737602233888,-2.615448474884033,1.739644169807434,0.2100000083446502,-0.5600000023841858,1.399999976158142,156.90585327148438,-94.40843200683594,-190.9161071777344
4196,1720095588.5391088,9.595561027526855,-0.4690099954605102,2.7853450775146484,5.670000076293945,-0.8400000333786011,0.1400000005960464,170.82525634765625,-223.91351318359372,165.3767547607422,4.8097453117370605,-7.650126934051514,4.489095687866211,-0.8400000333786011,-2.5899999141693115,-1.3300000429153442,44.400001525878906,10.050000190734863,-16.950000762939453,9.48788070678711,2.151224374771118,1.7946810722351074,0.6299999952316284,-0.2800000011920929,0.9800000190734864,28.69948387145996,-156.65684509277344,-98.3355484008789,3.9578700065612793,7.049507141113281,5.649655818939209,0.2100000083446502,-0.5600000023841858,0.1400000005960464,59.92646408081055,-151.50209045410156,120.63844299316406,,,,,,,,,
4197,1720095588.5394518,9.528559684753418,-0.6054057478904724,2.9624202251434326,3.220000028610229,-1.4700000286102295,0.0700000002980232,170.09178161621094,-221.1125030517578,167.4202423095703,4.759494304656982,-7.628591060638428,4.498667240142822,-0.6299999952316284,-2.1700000762939453,-1.2599999904632568,45.0,11.700000762939451,-17.55000114440918,9.485487937927246,2.172760486602783,1.81382429599762,0.9100000262260436,0.4200000166893005,0.9100000262260436,31.526065826416016,-158.7646484375,-101.11128997802734,3.933940887451172,7.1356520652771,5.656834602355957,0.1400000005960464,-0.2800000011920929,0.2800000011920929,59.92646408081055,-151.50209045410156,120.63844299316406,9.514202117919922,-2.5891265869140625,1.749215841293335,-0.2100000083446502,-0.5600000023841858,1.680000066757202,154.3665313720703,-95.31775665283205,-192.32196044921875
4198,1720095588.539317,9.459165573120115,-0.4785816073417663,2.823631525039673,3.7100000381469727,-0.4200000166893005,0.0,167.16249084472656,-217.9859619140625,165.61093139648438,4.742743968963623,-7.592697143554687,4.484309673309326,-0.9800000190734864,-2.0299999713897705,-0.9100000262260436,45.45000076293945,10.950000762939451,-16.80000114440918,9.502238273620604,2.172760486602783,1.81382429599762,0.2800000011920929,0.699999988079071,0.7699999809265137,29.30368423461914,-157.32554626464844,-101.12167358398438,3.924369335174561,7.17872428894043,5.649655818939209,-0.1400000005960464,-0.2100000083446502,0.699999988079071,59.92646408081055,-151.50209045410156,120.63844299316406,9.499845504760742,-2.6034839153289795,1.7683590650558472,-0.9100000262260436,-0.1400000005960464,1.9600000381469729,158.49359130859375,-97.06492614746094,-190.9770965576172
4199,1720095588.564958,9.423272132873535,-0.5264397859573364,2.811666965484619,2.870000123977661,-1.6100000143051147,-0.0700000002980232,168.7176971435547,-220.36952209472656,165.73873901367188,4.771458625793457,-7.64773416519165,4.517810344696045,-1.1200000047683716,-2.240000009536743,-1.1200000047683716,44.25,8.850000381469727,-15.600000381469728,9.440022468566896,2.172760486602783,1.7851094007492063,-0.6299999952316284,0.4200000166893005,0.6299999952316284,28.60396957397461,-157.9970703125,-100.81546783447266,3.9363338947296143,7.171545505523682,5.697514057159424,-0.4900000095367431,-0.1400000005960464,0.9100000262260436,59.92646408081055,-151.50209045410156,120.63844299316406,9.473523139953612,-2.670485496520996,1.7659661769866943,-0.8400000333786011,0.2100000083446502,1.75,160.31301879882812,-98.15149688720705,-189.49966430664065
4200,1720095588.5392148,9.466344833374023,-0.5120823383331299,2.8906328678131104,1.5399999618530271,-2.380000114440918,-0.2800000011920929,169.77793884277344,-220.5402374267578,166.54249572753906,4.706850051879883,-7.66448450088501,4.529775142669678,-0.6299999952316284,-1.8899999856948853,-1.3300000429153442,44.25,11.700000762939451,-17.700000762939453,9.44480800628662,2.1320810317993164,1.7970739603042605,-0.9100000262260436,-0.1400000005960464,0.6299999952316284,31.44169235229492,-158.9833984375,-98.62615966796876,3.9387266635894775,7.166759967803955,5.709478855133057,-0.9800000190734864,-0.0700000002980232,1.190000057220459,59.92646408081055,-151.50209045410156,120.63844299316406,9.46155834197998,-2.6680924892425537,1.706143498420715,-0.2100000083446502,0.2800000011920929,1.4700000286102295,160.72232055664062,-101.42273712158205,-191.20376586914065
4201,1720095588.539554,9.47830867767334,-0.540797233581543,2.8212387561798096,1.6100000143051147,-2.309999942779541,-0.2100000083446502,170.73028564453125,-220.4538726806641,165.2897491455078,4.692492961883545,-7.657305717468262,4.546525478363037,-0.2800000011920929,-2.240000009536743,-1.5399999618530271,44.55000305175781,10.950000762939451,-16.5,9.523774147033691,2.1201164722442627,1.761180400848389,-0.2800000011920929,-0.3499999940395355,0.9100000262260436,30.44192695617676,-154.8395538330078,-98.72601318359376,3.9506912231445312,7.051900386810303,5.702300071716309,-1.1200000047683716,0.0,0.9800000190734864,59.92646408081055,-151.50209045410156,120.63844299316406,9.459165573120115,-2.622627258300781,1.7444299459457395,0.699999988079071,-0.0700000002980232,1.2599999904632568,164.7534942626953,-100.75080871582033,-188.44813537597656
4202,1720095588.539393,9.521381378173828,-0.540797233581543,2.845167636871338,0.9100000262260436,-2.0999999046325684,0.0,171.0933380126953,-223.1752777099609,164.5245361328125,4.816924095153809,-7.611840724945068,4.503453254699707,-0.2100000083446502,-2.380000114440918,-1.5399999618530271,44.55000305175781,11.100000381469728,-18.150001525878903,9.497451782226562,2.148831367492676,1.7898952960968018,0.4200000166893005,-0.1400000005960464,1.2599999904632568,27.468339920043945,-158.32302856445312,-100.02452087402344,3.96744155883789,6.999256134033203,5.683156490325928,-0.699999988079071,0.0,0.8400000333786011,59.92646408081055,-151.50209045410156,120.63844299316406,9.442415237426758,-2.622627258300781,1.7252867221832275,1.1200000047683716,-0.4200000166893005,1.399999976158142,159.07289123535156,-99.53980255126952,-190.29820251464844
4203,1720095588.565034,9.504631042480469,-0.5527617931365967,2.852346420288086,1.2599999904632568,-1.399999976158142,-0.0700000002980232,168.86801147460938,-220.1368865966797,165.21823120117188,4.735565185546875,-7.554410934448242,4.508238792419434,-0.699999988079071,-2.6600000858306885,-1.4700000286102295,44.10000228881836,11.100000381469728,-17.400001525878906,,,,,,,,,,3.962655782699585,7.068650722503662,5.690335273742676,-0.3499999940395355,0.0700000002980232,0.8400000333786011,59.92646408081055,-151.50209045410156,120.63844299316406,9.497451782226562,-2.593912363052368,1.6750357151031494,0.9100000262260436,-0.5600000023841858,1.6100000143051147,156.73965454101562,-96.2443389892578,-191.66099548339844
4204,1720095588.539368,9.466344833374023,-0.5503688454627991,2.8427748680114746,1.399999976158142,-1.8899999856948853,-0.1400000005960464,169.50384521484375,-222.11907958984372,163.74110412597656,4.819316864013672,-7.671663284301758,4.489095687866211,-0.4900000095367431,-2.7300000190734863,-1.399999976158142,46.20000076293945,10.050000190734863,-16.5,9.528559684753418,2.206261157989502,1.7898952960968018,0.2100000083446502,0.1400000005960464,1.399999976158142,29.80817222595215,-155.01641845703125,-100.295166015625,3.926762104034424,7.102151393890381,5.692728519439697,-0.699999988079071,-0.2100000083446502,0.6299999952316284,59.92646408081055,-151.50209045410156,120.63844299316406,9.502238273620604,-2.6034839153289795,1.70135760307312,0.2100000083446502,-0.4200000166893005,1.8899999856948853,161.0349578857422,-98.79542541503906,-188.7775421142578
4205,1720095588.53965,9.480701446533203,-0.5527617931365967,2.811666965484619,1.75,-2.799999952316284,-0.0700000002980232,169.03025817871094,-221.7814178466797,163.1031951904297,4.812138080596924,-7.64773416519165,4.472345352172852,0.0700000002980232,-2.240000009536743,-1.2599999904632568,44.70000076293945,10.950000762939451,-16.5,9.483095169067385,2.232583284378052,1.8329676389694212,-0.6299999952316284,0.3499999940395355,1.1200000047683716,28.131696701049805,-156.33901977539062,-101.7800521850586,3.962655782699585,7.17872428894043,5.719050407409668,-0.699999988079071,-0.3499999940395355,0.6299999952316284,59.92646408081055,-151.50209045410156,120.63844299316406,9.497451782226562,-2.5747690200805664,1.7276796102523804,-0.5600000023841858,-0.2800000011920929,1.8200000524520876,159.37472534179688,-102.27410125732422,-192.88771057128903
4206,1720095588.539578,9.47830867767334,-0.588655412197113,2.8619179725646973,1.8899999856948853,-2.940000057220459,0.0700000002980232,171.87783813476562,-222.48590087890625,166.7442626953125,4.737957954406738,-7.614233493804932,4.498667240142822,0.0,-1.9600000381469729,-1.1200000047683716,43.5,10.950000762939451,-15.300000190734863,9.521381378173828,2.156010150909424,1.8281817436218264,-1.0499999523162842,0.2100000083446502,0.7699999809265137,29.518611907958984,-158.39944458007812,-99.3508758544922,3.9530842304229736,7.109330177307129,5.721443176269531,-0.4900000095367431,-0.2800000011920929,0.699999988079071,59.92646408081055,-151.50209045410156,120.63844299316406,9.509416580200195,-2.605876922607422,1.718108057975769,-1.5399999618530271,-0.3499999940395355,1.5399999618530271,160.03509521484375,-99.17157745361328,-190.09918212890625
4207,1720095588.539722,9.485487937927246,-0.5862624645233154,2.837989091873169,2.0299999713897705,-2.309999942779541,0.0700000002980232,171.35154724121094,-223.19970703125,166.06051635742188,4.773851871490479,-7.674056053161621,4.510631561279297,0.0700000002980232,-2.309999942779541,-1.2599999904632568,44.55000305175781,11.850000381469728,-16.950000762939453,9.490273475646973,2.2230117321014404,1.8186101913452148,-0.699999988079071,0.0700000002980232,0.699999988079071,28.503395080566406,-155.5789794921875,-99.54502868652344,3.9650487899780273,7.051900386810303,5.666406154632568,-0.6299999952316284,-0.1400000005960464,0.7699999809265137,59.92646408081055,-151.50209045410156,120.63844299316406,9.468737602233888,-2.6680924892425537,1.7276796102523804,-2.1700000762939453,-0.2100000083446502,1.3300000429153442,161.87425231933594,-99.2136459350586,-189.5582275390625
4208,1720095588.53948,9.504631042480469,-0.5742979645729065,2.8499536514282227,2.0999999046325684,-2.309999942779541,0.0700000002980232,169.56211853027344,-220.5068817138672,166.26947021484375,4.723600387573242,-7.520910263061523,4.503453254699707,-0.1400000005960464,-2.0999999046325684,-1.2599999904632568,45.0,9.0,-17.25,9.492666244506836,2.172760486602783,1.8186101913452148,-1.0499999523162842,0.0,0.4900000095367431,27.495737075805664,-158.87681579589844,-101.52473449707033,3.974620342254639,7.066257476806641,5.640084266662598,-0.4900000095367431,0.0,0.699999988079071,59.92646408081055,-151.50209045410156,120.63844299316406,9.466344833374023,-2.6465563774108887,1.7563945055007937,-1.680000066757202,-0.4200000166893005,1.3300000429153442,159.93528747558594,-100.23294067382812,-191.54833984375
4209,1720095588.5398228,9.480701446533203,-0.5288326740264893,2.8427748680114746,1.8200000524520876,-1.8899999856948853,0.2100000083446502,170.19161987304688,-219.5703582763672,165.0294189453125,4.769065856933594,-7.645341396331787,4.536953926086426,-0.2800000011920929,-2.1700000762939453,-1.399999976158142,45.45000076293945,11.550000190734863,-16.650001525878906,9.466344833374023,2.1871180534362797,1.830574631690979,-1.399999976158142,0.0700000002980232,0.4900000095367431,29.952884674072266,-155.82530212402344,-99.45822143554688,4.008121013641357,7.104544162750244,5.656834602355957,-0.4200000166893005,0.3499999940395355,0.7699999809265137,59.92646408081055,-151.50209045410156,120.63844299316406,9.483095169067385,-2.648949146270752,1.7587873935699463,-0.9100000262260436,-0.5600000023841858,1.399999976158142,159.61244201660156,-99.38277435302734,-191.53565979003903
4210,1720095588.5397458,9.514202117919922,-0.5790837407112122,2.902597427368164,1.399999976158142,-2.1700000762939453,0.2100000083446502,171.73826599121094,-221.39614868164065,167.21875,4.781030178070068,-7.609447956085205,4.438844680786133,-0.2800000011920929,-2.0299999713897705,-1.5399999618530271,46.35000228881836,10.050000190734863,-17.55000114440918,9.46155834197998,2.1823322772979736,1.7898952960968018,-1.680000066757202,0.0,0.6299999952316284,30.03504943847656,-157.9674835205078,-100.11888122558594,3.9363338947296143,7.037542819976807,5.728621959686279,-0.6299999952316284,0.4200000166893005,0.7699999809265137,59.92646408081055,-151.50209045410156,120.63844299316406,9.509416580200195,-2.6680924892425537,1.7540016174316406,-0.5600000023841858,-0.699999988079071,1.5399999618530271,162.110107421875,-102.44261932373048,-190.2723693847656
4211,1720095588.5397708,9.4950590133667,-0.5623334050178528,2.840381860733032,1.8899999856948853,-2.240000009536743,0.0,169.3467254638672,-220.19366455078125,167.1675567626953,4.740350723266602,-7.590304374694824,4.441237449645996,-0.4900000095367431,-1.6100000143051147,-1.3300000429153442,46.05000305175781,9.90000057220459,-17.850000381469727,9.447200775146484,2.148831367492676,1.8162171840667725,-1.3300000429153442,0.0,0.699999988079071,31.16090965270996,-153.88418579101562,-97.2998046875,3.9650487899780273,7.114115715026856,5.747765064239502,-0.699999988079071,0.2800000011920929,0.8400000333786011,59.92646408081055,-151.50209045410156,120.63844299316406,9.480701446533203,-2.6585209369659424,1.7540016174316406,-0.8400000333786011,-0.6299999952316284,1.5399999618530271,159.06097412109375,-97.18182373046876,-192.5436553955078
4212,1720095588.539625,9.483095169067385,-0.5455830693244934,2.9049904346466064,2.0299999713897705,-2.0299999713897705,-0.1400000005960464,168.9698944091797,-221.2345733642578,163.62110900878906,4.797780513763428,-7.6692705154418945,4.457987785339356,-0.4900000095367431,-1.6100000143051147,-1.2599999904632568,44.70000076293945,10.200000762939451,-15.90000057220459,9.459165573120115,2.167974710464477,1.847325086593628,-0.9800000190734864,0.2100000083446502,0.7699999809265137,31.523426055908203,-161.4054718017578,-100.45791625976562,3.929155111312866,7.133258819580078,5.745372295379639,-0.699999988079071,0.2100000083446502,0.9100000262260436,59.92646408081055,-151.50209045410156,120.63844299316406,9.473523139953612,-2.641770601272583,1.7444299459457395,-1.2599999904632568,-0.4900000095367431,1.399999976158142,161.53463745117188,-101.00728607177734,-189.3131561279297
4213,1720095588.5399268,9.528559684753418,-0.5503688454627991,2.895418882369995,2.309999942779541,-1.399999976158142,-0.4200000166893005,171.09420776367188,-222.6155242919922,166.86671447753906,4.78342342376709,-7.633376598358154,4.489095687866211,-0.4900000095367431,-1.6100000143051147,-1.190000057220459,43.35000228881836,11.850000381469728,-18.30000114440918,9.449594497680664,2.1751534938812256,1.847325086593628,-0.3499999940395355,0.2100000083446502,0.7699999809265137,29.671884536743164,-159.76608276367188,-100.5754623413086,3.921976327896118,7.106936931610107,5.690335273742676,-0.7699999809265137,-0.0700000002980232,0.9100000262260436,59.92646408081055,-151.50209045410156,120.63844299316406,9.47830867767334,-2.715950727462769,1.746822953224182,-1.5399999618530271,-0.3499999940395355,1.4700000286102295,162.9160919189453,-99.10845184326172,-188.1446990966797
4214,1720095588.5397968,9.47830867767334,-0.5288326740264893,2.845167636871338,2.309999942779541,-0.4900000095367431,-0.4900000095367431,170.376220703125,-218.01036071777344,165.16452026367188,4.735565185546875,-7.633376598358154,4.541739463806152,-0.5600000023841858,-1.6100000143051147,-1.3300000429153442,45.0,10.950000762939451,-17.850000381469727,9.490273475646973,2.141652822494507,1.868861198425293,-0.1400000005960464,0.2100000083446502,0.9800000190734864,30.023099899291992,-156.09030151367188,-98.5243682861328,3.912404775619507,7.121294498443604,5.716657638549805,-0.5600000023841858,-0.3499999940395355,0.9100000262260436,59.92646408081055,-151.50209045410156,120.63844299316406,9.485487937927246,-2.713557720184326,1.7516087293624878,-1.399999976158142,-0.2800000011920929,1.2599999904632568,162.25790405273438,-100.33080291748048,-188.91770935058597
4215,1720095588.5399008,9.542917251586914,-0.5838695764541626,2.938491106033325,2.0999999046325684,-0.3499999940395355,-0.6299999952316284,172.0332794189453,-221.97239685058597,167.53517150878906,4.742743968963623,-7.645341396331787,4.489095687866211,-0.7699999809265137,-1.8200000524520876,-1.190000057220459,43.80000305175781,9.600000381469728,-17.100000381469727,9.456772804260254,2.194296836853028,1.844932198524475,-0.3499999940395355,0.1400000005960464,0.9800000190734864,30.342992782592773,-155.3411865234375,-97.83296966552734,3.948298454284668,7.080615043640137,5.673584938049316,-0.8400000333786011,-0.2800000011920929,0.8400000333786011,59.92646408081055,-151.50209045410156,120.63844299316406,9.521381378173828,-2.68245005607605,1.8114314079284668,-1.190000057220459,-0.2800000011920929,1.1200000047683716,161.0319061279297,-101.71613311767578,-189.29525756835935
4216,1720095588.539697,9.492666244506836,-0.509689450263977,3.036600351333618,1.3300000429153442,0.6299999952316284,-0.6299999952316284,168.7099151611328,-223.2912139892578,165.0806884765625,4.74752950668335,-7.580732822418213,4.484309673309326,-0.7699999809265137,-1.8200000524520876,-1.3300000429153442,45.30000305175781,10.050000190734863,-18.30000114440918,9.473523139953612,2.1823322772979736,1.8042527437210083,-0.4200000166893005,0.0700000002980232,0.9800000190734864,30.34859085083008,-154.2996368408203,-99.19042205810548,3.9578700065612793,7.013613700866699,5.692728519439697,-0.9100000262260436,-0.3499999940395355,0.699999988079071,59.92646408081055,-151.50209045410156,120.63844299316406,9.497451782226562,-2.67287826538086,1.7659661769866943,-1.0499999523162842,-0.2100000083446502,1.190000057220459,159.99488830566406,-97.3003387451172,-189.34664916992188
4217,1720095588.5400589,9.55727481842041,-0.5623334050178528,2.9887421131134038,-0.2100000083446502,0.0,-0.7699999809265137,172.0559844970703,-222.52719116210935,165.89463806152344,4.754708290100098,-7.619019508361816,4.4867024421691895,-0.4900000095367431,-1.8899999856948853,-1.2599999904632568,45.150001525878906,11.100000381469728,-16.80000114440918,9.483095169067385,2.1823322772979736,1.8545037508010864,-0.2800000011920929,0.1400000005960464,1.1200000047683716,27.359235763549805,-154.86636352539062,-100.53253173828124,3.9578700065612793,7.121294498443604,5.6807637214660645,-0.8400000333786011,-0.3499999940395355,0.7699999809265137,59.92646408081055,-151.50209045410156,120.63844299316406,9.47830867767334,-2.627413034439087,1.777930736541748,-0.7699999809265137,-0.0700000002980232,1.2599999904632568,161.4739532470703,-96.22030639648438,-188.7445526123047
4218,1720095588.5399768,9.40891456604004,-0.3996156454086303,2.720736503601074,1.3300000429153442,3.569999933242798,-0.8400000333786011,169.644287109375,-222.64907836914065,165.6088104248047,4.807352542877197,-7.635769844055176,4.534560680389404,-0.4200000166893005,-2.1700000762939453,-1.4700000286102295,43.5,9.300000190734863,-18.0,9.483095169067385,2.167974710464477,1.7946810722351074,0.1400000005960464,0.2100000083446502,1.1200000047683716,29.104957580566406,-158.88851928710938,-101.67777252197266,3.94111967086792,7.11890172958374,5.683156490325928,-0.9100000262260436,-0.3499999940395355,0.8400000333786011,59.92646408081055,-151.50209045410156,120.63844299316406,9.485487937927246,-2.6537351608276367,1.7228938341140747,-0.7699999809265137,0.0,1.2599999904632568,162.43055725097656,-96.89361572265624,-187.1880798339844
4219,1720095588.5400329,9.633848190307615,-0.8518753051757812,3.0509579181671143,-1.75,-2.5199999809265137,-0.699999988079071,172.72654724121094,-222.9021453857422,166.24423217773438,4.771458625793457,-7.595090389251709,4.534560680389404,-0.4900000095367431,-1.8899999856948853,-1.399999976158142,45.60000228881836,10.5,-18.450000762939453,9.447200775146484,2.141652822494507,1.8186101913452148,0.699999988079071,0.1400000005960464,1.190000057220459,27.569482803344727,-155.46046447753906,-102.74203491210938,3.99376368522644,7.092579364776611,5.719050407409668,-1.0499999523162842,-0.3499999940395355,0.8400000333786011,59.92646408081055,-151.50209045410156,120.63844299316406,9.483095169067385,-2.6393775939941406,1.739644169807434,-0.9100000262260436,0.0,1.399999976158142,161.68495178222656,-100.77464294433594,-189.8336639404297
4220,1720095588.539847,,,,,,,,,,4.761887073516846,-7.607054710388184,4.517810344696045,-0.6299999952316284,-2.0299999713897705,-1.3300000429153442,43.80000305175781,12.0,-17.55000114440918,9.449594497680664,2.172760486602783,1.847325086593628,1.2599999904632568,0.2100000083446502,1.0499999523162842,29.67626953125,-155.52496337890625,-100.38442993164062,3.9530842304229736,7.078222274780273,5.719050407409668,-1.0499999523162842,-0.3499999940395355,0.8400000333786011,59.92646408081055,-151.50209045410156,120.63844299316406,9.504631042480469,-2.6513421535491943,1.7563945055007937,-0.9100000262260436,0.0700000002980232,1.2599999904632568,157.88766479492188,-97.51570129394533,-192.87535095214844
4221,1720095588.565488,9.447200775146484,-0.3015064299106598,2.768594741821289,-1.1200000047683716,1.9600000381469729,-0.5600000023841858,170.68141174316406,-222.54486083984372,166.8820037841797,4.773851871490479,-7.638162612915039,4.544132232666016,0.1400000005960464,-2.450000047683716,-1.4700000286102295,44.70000076293945,10.800000190734863,-17.850000381469727,9.545310020446776,2.2373690605163574,1.7803236246109009,1.2599999904632568,0.0,0.9800000190734864,31.06450462341309,-156.2649688720703,-98.28192901611328,3.926762104034424,7.044721603393555,5.71187162399292,-0.9800000190734864,-0.3499999940395355,0.8400000333786011,59.92646408081055,-151.50209045410156,120.63844299316406,9.475915908813477,-2.605876922607422,1.7085363864898682,-0.8400000333786011,0.0700000002980232,1.2599999904632568,159.4098663330078,-100.38699340820312,-189.889892578125
4222,1720095588.5400858,9.497451782226562,-0.6700142621994019,2.9145619869232178,0.6299999952316284,0.2800000011920929,-0.1400000005960464,169.1197509765625,-221.76258850097656,165.76947021484375,4.740350723266602,-7.566375255584717,4.532167911529541,0.3499999940395355,-2.240000009536743,-1.4700000286102295,46.5,10.350000381469728,-17.25,9.542917251586914,2.2301902770996094,1.806645631790161,1.0499999523162842,0.3499999940395355,1.1200000047683716,30.95572280883789,-157.04844665527344,-98.84064483642578,3.943512439727783,7.0854010581970215,5.692728519439697,-0.6299999952316284,-0.4200000166893005,0.7699999809265137,59.92646408081055,-151.50209045410156,120.63844299316406,9.48788070678711,-2.634591817855835,1.7587873935699463,-1.1200000047683716,0.2100000083446502,1.4700000286102295,158.74359130859375,-100.2909164428711,-191.270263671875
4223,1720095588.5401669,9.562060356140137,-0.521653950214386,2.7853450775146484,0.4900000095367431,1.0499999523162842,0.0,172.6276092529297,-223.4037628173828,167.1372833251953,4.714028835296631,-7.5998759269714355,4.513024806976318,0.0,-2.450000047683716,-1.4700000286102295,44.85000228881836,9.600000381469728,-17.400001525878906,9.523774147033691,2.244547843933105,1.876039981842041,0.699999988079071,0.3499999940395355,1.3300000429153442,29.89932632446289,-157.43649291992188,-101.84626007080078,3.924369335174561,7.116508483886719,5.678370952606201,-0.7699999809265137,-0.4200000166893005,0.8400000333786011,59.92646408081055,-151.50209045410156,120.63844299316406,9.559667587280272,-2.6872358322143555,1.6654640436172483,-1.190000057220459,0.6299999952316284,1.680000066757202,162.09303283691406,-100.8462905883789,-189.98928833007807
4224,1720095588.540006,9.413700103759766,-0.5790837407112122,2.86431097984314,4.409999847412109,-0.9800000190734864,-0.2100000083446502,173.46218872070312,-223.82298278808597,166.2162628173828,4.776244640350342,-7.633376598358154,4.4938812255859375,-0.1400000005960464,-2.5899999141693115,-1.5399999618530271,45.30000305175781,10.5,-17.100000381469727,9.480701446533203,2.2373690605163574,1.897576093673706,0.0,0.0,1.399999976158142,29.929765701293945,-155.55038452148438,-98.98876953125,3.917190551757813,7.049507141113281,5.742979526519775,-0.6299999952316284,-0.5600000023841858,0.7699999809265137,59.92646408081055,-151.50209045410156,120.63844299316406,9.727170944213867,-2.713557720184326,1.6702498197555542,-0.0700000002980232,1.8200000524520876,2.1700000762939453,162.31398010253906,-100.5987777709961,-188.40484619140625
4225,1720095588.565647,9.593168258666992,-0.540797233581543,2.8834543228149414,3.5,-1.8899999856948853,-0.4900000095367431,169.8194580078125,-221.091064453125,165.46327209472656,4.761887073516846,-7.571161270141602,4.503453254699707,-0.2800000011920929,-2.380000114440918,-1.5399999618530271,44.10000228881836,10.65000057220459,-16.05000114440918,9.435236930847168,2.242154836654663,1.8856115341186523,-1.2599999904632568,-0.3499999940395355,1.1200000047683716,29.841140747070312,-155.0094757080078,-99.31285095214844,3.9650487899780273,7.106936931610107,5.733407974243164,-0.3499999940395355,-0.6299999952316284,0.6299999952316284,59.92646408081055,-151.50209045410156,120.63844299316406,9.765458106994627,-2.58673357963562,1.904754877090454,0.8400000333786011,2.940000057220459,3.289999961853028,158.90933227539062,-98.73487854003906,-191.6964569091797
4226,1720095588.5401938,9.600347518920898,-0.5240468978881836,2.979170560836792,3.289999961853028,-0.699999988079071,-0.699999988079071,170.7460479736328,-223.37060546875,165.33334350585938,4.764279842376709,-7.559196472167969,4.491488456726074,-0.9100000262260436,-2.5899999141693115,-1.2599999904632568,46.20000076293945,10.5,-18.450000762939453,9.373021125793455,2.110544919967652,1.907147765159607,-1.6100000143051147,-0.4900000095367431,0.8400000333786011,30.11896324157715,-158.50938415527344,-99.93512725830078,3.929155111312866,7.094972610473633,5.719050407409668,-0.3499999940395355,-0.4200000166893005,0.699999988079071,59.92646408081055,-151.50209045410156,120.63844299316406,10.083714485168455,-2.151224374771118,2.2230117321014404,-1.3300000429153442,3.289999961853028,5.320000171661377,163.2230682373047,-101.56188201904295,-189.4227752685547
4227,1720095588.5403929,9.600347518920898,-0.5958341360092163,3.007885456085205,2.6600000858306885,1.5399999618530271,-0.7699999809265137,167.13543701171875,-221.1914978027344,163.22047424316406,4.773851871490479,-7.508945465087891,4.431665897369385,-2.240000009536743,-2.450000047683716,-1.1200000047683716,44.70000076293945,10.950000762939451,-16.80000114440918,9.423272132873535,2.0890088081359863,1.86646831035614,-0.5600000023841858,-0.2800000011920929,0.5600000023841858,28.374452590942383,-157.68682861328125,-100.33837127685548,3.917190551757813,7.066257476806641,5.697514057159424,-0.1400000005960464,-0.4900000095367431,0.6299999952316284,59.92646408081055,-151.50209045410156,120.63844299316406,10.220110893249512,-2.366586208343506,2.038757801055908,-6.019999980926514,7.139999866485596,5.53000020980835,160.75015258789062,-101.69666290283205,-191.5328826904297
4228,1720095588.540139,9.588382720947266,-0.4857603311538696,2.940884113311768,3.289999961853028,2.7300000190734863,-0.9100000262260436,171.42605590820312,-223.74359130859372,165.96360778808594,4.816924095153809,-7.662091732025146,4.527381896972656,-3.7100000381469727,-3.3600001335144043,-0.9100000262260436,45.30000305175781,11.100000381469728,-16.650001525878906,9.504631042480469,2.1033661365509038,1.7563945055007937,0.2800000011920929,0.2100000083446502,0.1400000005960464,27.76129150390625,-156.25942993164062,-100.50179290771484,3.955476999282837,7.185903072357178,5.692728519439697,-0.0700000002980232,-0.4900000095367431,0.7699999809265137,59.92646408081055,-151.50209045410156,120.63844299316406,9.667348861694336,-3.510396242141724,2.206261157989502,-6.720000267028809,12.600000381469728,-3.7100000381469727,163.34861755371094,-98.13460540771484,-189.0964508056641
4229,1720095588.56578,9.521381378173828,-0.667621374130249,2.91695499420166,3.0799999237060547,2.870000123977661,-0.7699999809265137,170.25405883789062,-222.75704956054688,165.3052215576172,4.924604892730713,-7.946847915649414,4.623098373413086,-4.409999847412109,-4.550000190734863,-0.9100000262260436,45.45000076293945,10.350000381469728,-16.80000114440918,9.57402515411377,2.1249024868011475,1.7276796102523804,0.4200000166893005,0.4200000166893005,-0.3499999940395355,30.97369956970215,-157.60423278808594,-100.62151336669922,3.972227334976196,7.164366722106934,5.699907302856445,-0.4900000095367431,-0.6299999952316284,0.8400000333786011,59.92646408081055,-151.50209045410156,120.63844299316406,9.253376007080078,-2.957634449005127,2.577162027359009,4.690000057220459,17.43000030517578,-12.8100004196167,161.65109252929688,-101.82212829589844,-189.3181915283203
4230,1720095588.5403209,9.53334617614746,-0.765730619430542,2.873882532119751,2.7300000190734863,2.450000047683716,-0.6299999952316284,168.55445861816406,-223.80474853515625,164.28976440429688,5.084929466247559,-8.549860954284668,4.723600387573242,2.0299999713897705,-5.809999942779541,-2.0999999046325684,44.400001525878906,10.800000190734863,-15.90000057220459,9.66256332397461,2.1177237033843994,1.7252867221832275,0.1400000005960464,0.4200000166893005,-0.699999988079071,28.049531936645508,-154.1968231201172,-101.11939239501952,3.94111967086792,7.114115715026856,5.699907302856445,-0.7699999809265137,-0.7699999809265137,0.9100000262260436,59.92646408081055,-151.50209045410156,120.63844299316406,9.760672569274902,-1.706143498420715,2.663306713104248,14.0,21.280000686645508,-16.239999771118164,159.81752014160156,-100.738525390625,-191.21661376953125
4231,1720095588.5404158,9.435236930847168,-0.8758043646812439,2.995920896530152,2.799999952316284,1.9600000381469729,-0.0700000002980232,171.99560546875,-221.98033142089844,166.41253662109375,,,,,,,,,,9.499845504760742,1.983720779418945,1.8186101913452148,-0.2100000083446502,-0.1400000005960464,-1.4700000286102295,30.69281005859375,-157.02500915527344,-100.51696014404295,3.900440216064453,7.061471939086914,5.716657638549805,-0.9100000262260436,-0.9100000262260436,1.0499999523162842,59.92646408081055,-151.50209045410156,120.63844299316406,10.279932975769045,-0.758551836013794,2.902597427368164,9.730000495910645,24.850000381469727,-18.479999542236328,158.85281372070312,-98.7467803955078,-193.3804168701172
4232,1720095588.5402448,9.428057670593262,-0.7968384027481079,3.077279806137085,4.480000019073486,0.5600000023841858,0.8400000333786011,171.0406494140625,-224.22674560546875,164.4786834716797,5.362506866455078,-8.564218521118164,4.879139423370361,13.15999984741211,-7.769999980926514,-2.940000057220459,44.55000305175781,11.550000190734863,-16.5,9.425664901733398,1.957398772239685,1.890397429466248,0.8400000333786011,-1.0499999523162842,-2.309999942779541,30.909053802490234,-156.7784881591797,-99.07284545898438,3.902832984924317,7.061471939086914,5.766908645629883,-0.7699999809265137,-1.1200000047683716,0.8400000333786011,59.92646408081055,-151.50209045410156,120.63844299316406,10.28711223602295,-0.3589362204074859,2.7853450775146484,-6.019999980926514,28.700000762939453,-24.989999771118164,159.8697967529297,-99.96694946289062,-192.34185791015625
4233,1720095588.5658858,9.341913223266602,-0.648478090763092,2.8834543228149414,8.399999618530273,3.0799999237060547,1.190000057220459,172.14755249023438,-224.6674041748047,165.51463317871094,5.7238359451293945,-9.004512786865234,5.5467610359191895,26.11000061035156,-12.31999969482422,-2.940000057220459,45.45000076293945,9.450000762939451,-18.450000762939453,9.516595840454102,1.964577555656433,1.907147765159607,2.7300000190734863,-1.8200000524520876,-3.009999990463257,32.06898880004883,-160.4078369140625,-98.041748046875,3.9578700065612793,7.054293155670166,5.757337093353272,-0.4900000095367431,-1.2599999904632568,0.699999988079071,59.92646408081055,-151.50209045410156,120.63844299316406,9.932961463928224,-0.6077986359596252,2.6872358322143555,-26.46000099182129,34.93000030517578,-35.0,158.96630859375,-97.96231842041016,-192.68138122558597
4234,1720095588.5405629,9.377806663513184,-0.7633376717567444,3.02942156791687,7.490000247955322,0.0700000002980232,0.9100000262260436,170.40261840820312,-224.1247100830078,163.94029235839844,6.489566802978516,-9.361056327819824,5.6879425048828125,35.630001068115234,-18.82999992370605,-3.430000066757202,43.35000228881836,10.200000762939451,-18.150001525878903,9.528559684753418,2.014828681945801,1.8999689817428589,3.640000104904175,-2.1700000762939453,-3.009999990463257,29.71263313293457,-156.8374481201172,-98.93509674072266,3.969834566116333,7.011220932006836,5.745372295379639,-0.0700000002980232,-1.2599999904632568,0.3499999940395355,59.92646408081055,-151.50209045410156,120.63844299316406,10.217717170715332,-1.05048668384552,2.593912363052368,-40.11000061035156,39.47999954223633,-43.470001220703125,158.2486572265625,-97.5972671508789,-194.4342803955078
4235,1720095588.540464,9.298840522766112,-0.4331163763999939,3.1155662536621094,9.3100004196167,1.0499999523162842,-0.5600000023841858,171.68899536132812,-223.2862243652344,163.79994201660156,6.666641712188721,-9.710420608520508,5.649655818939209,59.08000183105469,-15.81999969482422,0.2800000011920929,45.60000228881836,10.200000762939451,-17.850000381469727,9.35866355895996,2.0818300247192383,1.90954065322876,4.269999980926514,-1.75,-2.240000009536743,30.544139862060547,-160.1773681640625,-100.37384033203124,3.98419189453125,7.027971267700195,5.726229190826416,0.1400000005960464,-1.190000057220459,0.2100000083446502,59.92646408081055,-151.50209045410156,120.63844299316406,10.533581733703612,-1.4309589862823486,3.022243022918701,-40.7400016784668,46.34000015258789,-48.790000915527344,160.42184448242188,-96.8872299194336,-192.7809295654297
4236,1720095588.5403688,9.420879364013672,-0.461831271648407,3.1227450370788574,8.960000038146973,0.1400000005960464,-1.9600000381469729,171.28604125976562,-222.9337158203125,165.26698303222656,7.126080513000488,-9.05237102508545,5.056214809417725,77.55999755859375,-16.030000686645508,2.5199999809265137,45.0,9.90000057220459,-19.350000381469727,9.248589515686035,2.024400234222412,1.8592896461486816,5.389999866485596,-0.5600000023841858,-1.4700000286102295,28.135196685791016,-153.13844299316406,-100.09123992919922,4.058372020721436,7.171545505523682,5.697514057159424,0.4900000095367431,-1.190000057220459,0.3499999940395355,59.92646408081055,-151.50209045410156,120.63844299316406,10.35650634765625,-1.543425679206848,3.1849606037139893,-35.349998474121094,57.470001220703125,-50.75,157.46633911132812,-96.40647888183594,-194.6385040283203
4237,1720095588.5660098,9.37541389465332,-0.3038993179798126,3.05574369430542,7.909999847412109,2.309999942779541,-3.569999933242798,172.13047790527344,-223.07107543945312,165.7977294921875,7.62141227722168,-7.114115715026856,5.142359256744385,77.20999908447266,-12.31999969482422,5.740000247955322,45.30000305175781,11.850000381469728,-19.200000762939453,9.239018440246582,1.873647093772888,1.907147765159607,9.170000076293944,0.4200000166893005,-0.6299999952316284,29.5041618347168,-154.1622772216797,-99.72115325927734,4.029657363891602,7.217010974884033,5.716657638549805,0.2800000011920929,-1.190000057220459,0.4900000095367431,59.92646408081055,-151.50209045410156,120.63844299316406,10.083714485168455,-1.521889567375183,3.3883578777313232,-31.01000022888184,66.77999877929688,-53.54999923706055,157.79696655273438,-94.33495330810548,-193.99313354492188
4238,1720095588.5406888,9.344305992126465,-0.308685153722763,3.0748867988586426,4.619999885559082,1.0499999523162842,-5.320000171661377,169.69480895996094,-223.4777984619141,163.63916015625,7.712342739105225,-7.511338710784912,5.565904140472412,80.29000091552734,-5.460000038146973,17.079999923706055,46.05000305175781,11.25,-19.650001525878903,9.23423194885254,1.7946810722351074,1.868861198425293,14.0,0.9800000190734864,1.3300000429153442,29.78637313842773,-153.42108154296875,-100.15240478515624,3.996156454086304,7.226582527160644,5.671192169189453,-0.1400000005960464,-1.2599999904632568,0.8400000333786011,59.92646408081055,-151.50209045410156,120.63844299316406,9.803744316101074,-1.4357448816299438,3.6156840324401855,-25.96999931335449,73.29000091552734,-56.13999938964844,158.3677520751953,-95.77127838134766,-195.0926971435547
4239,1720095588.540587,9.31319808959961,-0.2775773406028747,3.187353610992432,1.399999976158142,-0.1400000005960464,-6.440000057220459,171.14044189453125,-223.1653594970703,165.92782592773438,8.085636138916016,-6.444101333618164,5.116037368774414,57.540000915527344,4.409999847412109,21.13999938964844,45.30000305175781,11.25,-20.400001525878903,9.346698760986328,2.110544919967652,1.799466848373413,18.34000015258789,1.5399999618530271,3.7100000381469727,31.18731117248535,-159.99853515625,-98.52403259277344,4.046407699584961,7.154795169830322,5.635298728942871,-0.4900000095367431,-0.9800000190734864,0.9100000262260436,59.92646408081055,-151.50209045410156,120.63844299316406,9.638633728027344,-1.148595929145813,3.3955366611480717,-22.1200008392334,73.08000183105469,-57.400001525878906,157.09214782714844,-94.80654907226562,-198.8383331298828
4240,1720095588.5405138,9.373021125793455,-0.105287954211235,3.0054924488067627,-2.940000057220459,0.7699999809265137,-7.28000020980835,171.5669403076172,-223.51292419433597,165.1624298095703,7.444336891174316,-8.05452823638916,5.05142879486084,52.220001220703125,12.739999771118164,21.770000457763672,43.95000076293945,11.40000057220459,-19.650001525878903,9.40173625946045,2.268476963043213,1.6606782674789429,19.739999771118164,2.5199999809265137,5.880000114440918,29.698070526123047,-157.12030029296875,-100.52718353271484,4.125373363494873,7.061471939086914,5.618548393249512,-0.6299999952316284,-0.699999988079071,0.4900000095367431,59.92646408081055,-151.50209045410156,120.63844299316406,9.830066680908203,-1.2490980625152588,2.881061315536499,-20.71999931335449,68.66999816894531,-57.400001525878906,154.12173461914062,-90.84930419921876,-198.39732360839844
4241,1720095588.5661547,9.258161544799805,-0.2871489822864532,3.1155662536621094,-3.0799999237060547,-0.699999988079071,-7.909999847412109,170.786376953125,-220.7218475341797,165.8026123046875,6.879610538482666,-8.092815399169922,5.443865776062012,60.68999862670898,12.18000030517578,20.020000457763672,43.5,9.15000057220459,-21.30000114440918,9.45438003540039,2.1129379272460938,1.689393162727356,20.3700008392334,3.150000095367432,8.890000343322754,29.808603286743164,-154.73654174804688,-99.1240692138672,4.1493024826049805,7.027971267700195,5.63290548324585,-0.6299999952316284,0.0,0.0,59.92646408081055,-151.50209045410156,120.63844299316406,9.746315002441406,-1.359171748161316,2.816452741622925,-14.84000015258789,64.47000122070312,-57.540000915527344,155.5986328125,-91.64942932128906,-199.81072998046875
4242,1720095588.5408068,9.394556999206545,-0.2632198929786682,3.022243022918701,-3.150000095367432,-1.8899999856948853,-9.3100004196167,168.15504455566406,-219.77084350585935,163.60565185546875,6.64031982421875,-7.810451984405518,5.848267555236816,61.25,6.369999885559082,23.59000015258789,44.85000228881836,10.050000190734863,-22.80000114440918,9.437629699707031,1.9215052127838133,1.761180400848389,19.18000030517578,2.1700000762939453,13.300000190734863,29.36962127685547,-157.31167602539062,-99.15705108642578,4.1493024826049805,7.03993558883667,5.738193511962891,-0.9100000262260436,0.2100000083446502,-0.8400000333786011,59.92646408081055,-151.50209045410156,120.63844299316406,9.351485252380373,-0.9858781099319458,3.0868513584136963,-17.010000228881836,62.93000030517578,-55.86000061035156,156.23194885253906,-91.75244903564452,-199.4126739501953
4243,1720095588.540736,9.380199432373049,-0.1746822893619537,2.9695990085601807,-4.130000114440918,-2.450000047683716,-10.56999969482422,170.39024353027344,-222.5273895263672,164.36370849609375,6.937040328979492,-7.982741355895996,6.728857517242432,43.33000183105469,3.569999933242798,32.27000045776367,43.80000305175781,10.5,-23.700000762939453,9.459165573120115,1.9693633317947388,1.6630711555480957,15.960000038146973,-0.1400000005960464,18.40999984741211,28.5843505859375,-154.52159118652344,-98.6572036743164,4.134945392608643,7.16197395324707,5.848267555236816,-2.1700000762939453,0.699999988079071,-1.8200000524520876,59.92646408081055,-151.50209045410156,120.63844299316406,8.882474899291992,-0.7776951193809509,3.091637372970581,-28.350000381469727,58.72999954223633,-48.93000030517578,155.97198486328125,-93.32830810546876,-201.7930603027344
4244,1720095588.540638,9.425664901733398,-0.0789659693837165,2.8930258750915527,-6.019999980926514,-3.7799999713897705,-11.40999984741211,169.4246368408203,-221.57618713378903,163.6976776123047,6.544603824615479,-7.628591060638428,7.39647912979126,29.68000030517578,9.9399995803833,40.040000915527344,45.45000076293945,10.800000190734863,-21.450000762939453,9.55727481842041,2.2876200675964355,1.8281817436218264,12.8100004196167,1.190000057220459,20.71999931335449,31.94268226623535,-159.87484741210938,-99.48847198486328,4.146909713745117,7.425193786621094,5.946376800537109,-4.690000057220459,0.8400000333786011,-3.289999961853028,59.92646408081055,-151.50209045410156,120.63844299316406,9.066728591918944,-1.112702250480652,2.7231295108795166,-47.95000076293945,52.92000198364258,-39.54999923706055,153.06787109375,-93.11651611328124,-203.27810668945312
4245,1720095588.566279,,,,,,,,,,5.506081581115723,-6.877217769622803,7.721914291381836,20.86000061035156,19.11000061035156,46.970001220703125,43.95000076293945,9.300000190734863,-23.25,9.492666244506836,2.158403158187866,1.8712540864944456,11.270000457763672,2.7300000190734863,21.84000015258789,29.62050437927246,-159.4971160888672,-100.947998046875,4.099051475524902,7.286405086517334,5.809980869293213,-7.630000114440918,1.190000057220459,-4.619999885559082,59.92646408081055,-151.50209045410156,120.63844299316406,8.7843656539917,-1.5482115745544434,3.077279806137085,-69.58000183105469,47.810001373291016,-29.26000022888184,152.1562957763672,-89.79344940185547,-204.2249755859375
4246,1720095588.540999,9.530953407287598,-0.1340028494596481,2.971991777420044,-8.960000038146973,-5.25,-13.15999984741211,171.4621124267578,-220.33514404296875,163.6236572265625,4.812138080596924,-5.6592278480529785,8.14306640625,-8.399999618530273,24.07999992370605,59.150001525878906,43.650001525878906,11.550000190734863,-23.100000381469727,9.576417922973633,1.809038519859314,1.7803236246109009,9.239999771118164,1.0499999523162842,24.5,29.820093154907227,-157.37440490722656,-98.04969787597656,3.9530842304229736,6.965755462646484,5.592226028442383,-8.819999694824219,1.4700000286102295,-4.900000095367432,59.92646408081055,-151.50209045410156,120.63844299316406,8.49003791809082,-2.065079689025879,3.254354953765869,-87.01000213623047,43.75,-16.450000762939453,151.97640991210938,-91.35246276855467,-204.2197723388672
4247,1720095588.54083,9.504631042480469,-0.1938255578279495,2.9983139038085938,-8.819999694824219,-6.440000057220459,-14.210000038146973,170.24510192871094,-221.9983673095703,162.35568237304688,4.180410385131836,-3.8549749851226807,8.396714210510254,-77.41999816894531,32.27000045776367,75.25,43.650001525878906,9.450000762939451,-23.400001525878903,9.6697416305542,1.6965718269348145,1.6295703649520874,8.119999885559082,-0.9100000262260436,27.440000534057617,29.766536712646484,-158.98558044433594,-100.43773651123048,4.008121013641357,6.9872918128967285,5.709478855133057,-10.149999618530272,1.190000057220459,-5.320000171661377,59.92646408081055,-151.50209045410156,120.63844299316406,8.052135467529297,-2.706378936767578,3.421858549118042,-98.55999755859376,40.459999084472656,-0.4200000166893005,153.2819366455078,-94.75016021728516,-203.84950256347656
4248,1720095588.540712,9.507023811340332,-0.2129688262939453,3.000706672668457,-9.029999732971191,-6.789999961853027,-14.630000114440918,170.211669921875,-222.76597595214844,164.04225158691406,2.514946460723877,-2.964813232421875,8.348855972290039,-163.58999633789062,41.43999862670898,95.41000366210938,42.30000305175781,9.75,-20.400001525878903,9.629061698913574,1.5649619102478027,1.5649619102478027,8.260000228881836,-0.9100000262260436,29.32999992370605,28.86295318603516,-161.50096130371094,-101.99906158447266,4.017692565917969,7.370156764984131,6.1019158363342285,-7.070000171661377,1.4700000286102295,-6.440000057220459,59.92646408081055,-151.50209045410156,120.63844299316406,7.913347244262695,-3.2088897228240967,3.591755151748657,-103.45999908447266,35.42000198364258,16.309999465942383,152.143798828125,-92.71613311767578,-205.0233612060547
4249,1720095588.5663528,9.413700103759766,-0.4163660109043121,3.019850015640259,-8.539999961853027,-5.880000114440918,-14.350000381469728,169.10354614257812,-219.125732421875,164.55477905273438,0.5551546812057495,-4.740350723266602,7.054293155670166,-232.6100006103516,43.18999862670898,117.9499969482422,41.10000228881836,7.200000286102295,-18.75,9.542917251586914,1.5769264698028564,1.3926725387573242,9.449999809265137,-0.5600000023841858,29.96000099182129,31.67974090576172,-160.33221435546875,-97.3248062133789,4.194767951965332,7.906168460845947,6.3340277671813965,-6.720000267028809,0.2100000083446502,-8.1899995803833,59.92646408081055,-151.50209045410156,120.63844299316406,7.88223934173584,-3.864546537399292,3.448180675506592,-101.01000213623048,28.13999938964844,32.40999984741211,152.4515380859375,-99.12982177734376,-205.1810607910156
4250,1720095588.5410478,9.523774147033691,-0.3661149442195892,2.9600272178649902,-7.699999809265137,-5.949999809265137,-13.440000534057615,170.8775177001953,-223.14193725585935,164.2515106201172,0.4331163763999939,-6.47520923614502,5.714264392852783,-282.3099975585937,38.36000061035156,138.6699981689453,40.95000076293945,5.550000190734863,-14.700000762939451,9.55009651184082,1.56256902217865,1.4118157625198364,8.260000228881836,-0.699999988079071,29.32999992370605,28.397571563720703,-157.9617462158203,-100.80782318115234,4.235447406768799,7.956419467926025,6.2502760887146,-4.619999885559082,-1.8200000524520876,-10.079999923706056,59.92646408081055,-151.50209045410156,120.63844299316406,7.798487663269043,-4.508238792419434,3.362035751342773,-90.93000030517578,17.920000076293945,45.9900016784668,149.81813049316406,-95.53897857666016,-208.1717071533203
4251,1720095588.5409489,9.473523139953612,-0.5599405169487,3.041386127471924,-6.929999828338623,-5.460000038146973,-12.460000038146973,170.4074249267578,-219.6037139892578,165.30242919921875,-1.072022795677185,-8.391928672790527,4.3957719802856445,-290.2900085449219,41.720001220703125,154.55999755859375,39.60000228881836,3.150000095367432,-8.550000190734863,9.53334617614746,1.4189945459365845,1.6032484769821167,5.880000114440918,-0.6299999952316284,28.280000686645508,31.095294952392575,-158.13819885253906,-99.31512451171876,4.151695728302002,7.709949970245361,6.027735710144043,-1.9600000381469729,-3.0799999237060547,-12.460000038146973,59.92646408081055,-151.50209045410156,120.63844299316406,7.805665969848633,-4.8097453117370605,3.330928087234497,-75.45999908447266,6.230000019073486,56.90999984741211,153.08737182617188,-101.1120147705078,-206.65817260742188
4252,1720095588.5408778,9.485487937927246,-0.5455830693244934,3.0246357917785645,-4.269999980926514,-5.039999961853027,-10.779999732971191,169.35877990722656,-217.5508575439453,166.7948455810547,-2.206261157989502,-8.815473556518555,3.366821765899658,-265.92999267578125,38.36000061035156,168.6300048828125,35.25,1.2000000476837158,-2.700000047683716,9.753493309020996,1.2945632934570312,1.6487137079238892,5.179999828338623,-1.3300000429153442,26.739999771118164,31.85184860229492,-161.6949005126953,-97.98807525634766,4.290484428405762,7.291191101074219,5.865017890930176,2.940000057220459,-8.050000190734863,-11.619999885559082,59.92646408081055,-151.50209045410156,120.63844299316406,7.867881774902344,-5.072965145111084,3.393143653869629,-57.400001525878906,-3.640000104904175,68.11000061035156,152.235595703125,-103.6164779663086,-206.6758728027344
4253,1720095588.5665188,9.432844161987305,-0.6436922550201416,2.91695499420166,0.1400000005960464,-4.340000152587891,-8.890000343322754,170.25067138671875,-221.4376373291016,164.83819580078125,-2.866703987121582,-8.734114646911621,2.292405843734741,-229.9499969482422,35.06999969482422,185.5,32.55000305175781,1.5,2.400000095367432,9.911425590515137,1.2251689434051514,1.651106595993042,7.909999847412109,-1.3300000429153442,24.56999969482422,27.36558723449707,-157.7850799560547,-100.76959228515624,4.096658706665039,7.640555381774902,5.331399440765381,9.170000076293944,-4.199999809265137,-14.630000114440918,59.92646408081055,-151.50209045410156,120.63844299316406,8.131101608276367,-5.39122200012207,3.42903733253479,-40.52999877929688,-12.460000038146973,80.36000061035156,151.13690185546875,-99.9742431640625,-205.8826904296875
4254,1720095588.541174,9.528559684753418,-0.4379021823406219,2.943276882171631,3.150000095367432,-4.409999847412109,-7.28000020980835,172.06671142578125,-221.2047882080078,165.84861755371094,-2.9193477630615234,-9.116979598999023,2.158403158187866,-199.9900054931641,42.06999969482422,190.47000122070312,31.05000114440918,-1.0500000715255735,9.0,9.839637756347656,1.1749178171157837,1.531461238861084,10.920000076293944,-1.399999976158142,22.26000022888184,27.831398010253903,-161.04443359375,-100.78974151611328,3.926762104034424,7.920525550842285,5.367292881011963,8.1899995803833,-5.740000247955322,-15.260000228881836,59.92646408081055,-151.50209045410156,120.63844299316406,8.360820770263672,-5.271576404571533,3.618077039718628,-29.1200008392334,-21.700000762939453,91.55999755859376,153.82081604003906,-104.393798828125,-204.86167907714844
4255,1720095588.541098,9.629061698913574,-0.4020085632801056,3.05574369430542,5.110000133514404,-4.550000190734863,-5.460000038146973,170.5346221923828,-219.0961456298828,165.25135803222656,-3.036600351333618,-10.60776138305664,1.7252867221832275,-159.1800079345703,57.68000030517578,179.41000366210938,29.100000381469727,-2.8500001430511475,13.350000381469728,9.870745658874512,1.110309362411499,1.5266753435134888,11.34000015258789,-1.4700000286102295,20.51000022888184,28.99703598022461,-159.1122589111328,-99.89429473876952,4.103837490081787,7.590304374694824,5.132787704467773,-1.75,-5.809999942779541,-14.84000015258789,59.92646408081055,-151.50209045410156,120.63844299316406,8.425429344177246,-5.211753845214844,3.653970718383789,-20.93000030517578,-30.940000534057617,99.54000091552734,151.28060913085938,-106.34367370605467,-204.76976013183597
4256,1720095588.540973,9.554882049560549,-0.3948298394680023,3.2088897228240967,6.720000267028809,-4.550000190734863,-3.7799999713897705,169.80369567871094,-218.17433166503903,165.41966247558594,-3.3117847442626958,-11.560138702392578,1.6343562602996826,-94.43000030517578,82.80999755859375,159.8800048828125,26.100000381469727,-3.750000238418579,20.400001525878903,9.863567352294922,1.05048668384552,1.5721405744552612,11.130000114440918,-2.0299999713897705,19.040000915527344,28.40303421020508,-161.92100524902344,-99.5470962524414,3.907618999481201,7.035149574279785,5.22611141204834,-7.28000020980835,-2.309999942779541,-13.020000457763672,59.92646408081055,-151.50209045410156,120.63844299316406,8.564218521118164,-5.116037368774414,4.012907028198242,-19.809999465942383,-36.2599983215332,102.83000183105467,151.9756317138672,-105.67313385009766,-205.2162933349609
4257,1720095588.566614,9.624276161193848,-0.4737958014011383,3.02942156791687,9.3100004196167,-3.640000104904175,-2.0999999046325684,170.21044921875,-219.5663909912109,165.59072875976562,-4.02008581161499,-9.995177268981934,1.749215841293335,-21.979999542236328,105.9800033569336,126.62999725341795,24.750001907348636,-3.6000001430511475,21.600000381469727,9.8444242477417,0.9308412671089172,1.6989647150039673,12.739999771118164,-2.0299999713897705,17.56999969482422,30.629697799682617,-163.6389923095703,-100.5674819946289,3.661149263381958,7.228975296020508,5.252433300018311,-15.050000190734863,0.0700000002980232,-11.480000495910645,59.92646408081055,-151.50209045410156,120.63844299316406,8.509181022644043,-4.9078545570373535,4.407736778259277,-22.68000030517578,-36.959999084472656,105.62999725341795,151.69985961914062,-104.81305694580078,-203.80030822753903
4258,1720095588.541298,9.100229263305664,-0.1148595884442329,3.295034408569336,10.989999771118164,-3.009999990463257,-0.6299999952316284,169.9466552734375,-220.58349609375,165.41220092773438,-4.414915561676025,-8.94947624206543,2.108151912689209,41.43999862670898,119.91000366210938,92.81999969482422,22.05000114440918,-3.450000047683716,23.25,9.918603897094728,0.9451987147331238,1.6606782674789429,14.770000457763672,-1.680000066757202,15.68000030517578,30.173194885253903,-164.8976593017578,-101.4884796142578,3.6922571659088135,7.494588375091553,5.40797233581543,-24.5,-0.2100000083446502,-9.3100004196167,59.92646408081055,-151.50209045410156,120.63844299316406,8.559432029724121,-5.211753845214844,4.314413070678711,-20.09000015258789,-34.93000030517578,109.34000396728516,152.50694274902344,-109.19847869873048,-204.4429168701172
4259,1720095588.5412488,9.554882049560549,-0.2727915346622467,2.747058391571045,18.690000534057617,-3.430000066757202,1.3300000429153442,168.69415283203125,-220.37448120117188,165.03709411621094,-4.656599044799805,-7.638162612915039,1.7922881841659546,90.58000183105467,117.11000061035156,57.540000915527344,23.25,-5.100000381469727,21.600000381469727,,,,,,,,,,3.668328046798706,7.307941436767578,5.515653133392334,-33.38999938964844,0.2800000011920929,-8.680000305175781,59.92646408081055,-151.50209045410156,120.63844299316406,8.734114646911621,-6.1234517097473145,3.8884756565094,-5.53000020980835,-32.619998931884766,112.0,152.69021606445312,-108.95889282226562,-203.9811248779297
4260,1720095588.541072,9.162445068359377,-0.184253916144371,3.0102784633636475,15.260000228881836,-5.320000171661377,3.569999933242798,169.5659637451172,-221.06564331054688,164.06761169433594,-4.5489182472229,-7.059078693389893,0.461831271648407,128.1699981689453,110.04000091552734,31.01000022888184,19.650001525878903,-3.900000095367432,21.900001525878903,10.040642738342283,0.9906639456748962,1.679821491241455,14.980000495910645,-0.699999988079071,13.230000495910645,29.69104385375977,-164.0022735595703,-100.06484985351562,3.5750045776367188,7.164366722106934,5.6951212882995605,-39.27000045776367,-0.4900000095367431,-8.1899995803833,59.92646408081055,-151.50209045410156,120.63844299316406,8.461322784423828,-6.23352575302124,3.7209720611572266,12.949999809265137,-32.970001220703125,110.5999984741211,151.5862274169922,-110.59831237792967,-201.88116455078125
4261,1720095588.5667129,9.523774147033691,-0.0693943351507186,2.895418882369995,21.13999938964844,-9.3100004196167,5.320000171661377,171.80332946777344,-221.9420166015625,166.84117126464844,-4.5010600090026855,-6.647498607635498,-1.021771788597107,134.25999450683594,106.61000061035156,8.119999885559082,22.200000762939453,-4.950000286102295,19.80000114440918,9.940139770507812,0.98109233379364,1.5506044626235962,14.06999969482422,-0.4900000095367431,11.40999984741211,28.581172943115234,-161.96229553222656,-100.396728515625,3.5247535705566406,7.049507141113281,5.987056255340576,-45.63999938964844,-1.4700000286102295,-6.650000095367432,59.92646408081055,-151.50209045410156,120.63844299316406,8.05692195892334,-5.821945190429688,3.725757837295532,32.060001373291016,-40.52999877929688,106.88999938964844,153.0785675048828,-110.0750503540039,-203.2002716064453
4262,1720095588.541472,9.389771461486816,-0.1555390208959579,3.1586387157440186,22.540000915527344,-9.100000381469728,5.460000038146973,168.57122802734375,-221.1609344482422,164.05738830566406,-4.4795241355896,-7.597483158111572,-1.3543859720230105,131.52999877929688,101.43000030517578,-13.369999885559082,21.600000381469727,-5.25,16.5,9.870745658874512,0.8686256408691406,1.4142086505889893,13.720000267028809,-0.699999988079071,10.56999969482422,29.58061981201172,-161.8660125732422,-100.24617004394533,3.675506830215454,6.76235818862915,6.152166843414307,-48.650001525878906,-2.0999999046325684,-4.340000152587891,59.92646408081055,-151.50209045410156,120.63844299316406,8.16699504852295,-5.757337093353272,3.3835721015930176,55.93000030517578,-49.06999969482422,105.3499984741211,151.4353790283203,-115.63084411621094,-203.7535552978516
4263,1720095588.5413468,9.4950590133667,0.1076808646321296,2.9743847846984863,27.790000915527344,-9.239999771118164,5.460000038146973,170.68362426757812,-220.1839141845703,165.0575408935547,-4.103837490081787,-7.889418125152588,-0.1363957673311233,143.14999389648438,100.8000030517578,-35.06999969482422,20.25,-2.400000095367432,15.15000057220459,9.911425590515137,0.8040171265602112,1.404637098312378,16.030000686645508,-0.5600000023841858,10.710000038146973,28.828638076782227,-163.3091278076172,-98.81471252441406,3.704221725463867,6.67621374130249,6.503924369812012,-47.810001373291016,-1.190000057220459,-3.569999933242798,59.92646408081055,-151.50209045410156,120.63844299316406,8.40389347076416,-5.745372295379639,2.833203077316284,69.51000213623047,-49.97999954223633,105.91000366210938,150.6744384765625,-116.31526184082033,-205.2716522216797
4264,1720095588.541199,9.569239616394045,0.2392908036708831,3.000706672668457,24.71000099182129,-9.239999771118164,5.670000076293945,167.1744384765625,-219.8631591796875,164.01641845703125,-4.082301139831543,-7.226582527160644,0.2392908036708831,154.77000427246094,93.7300033569336,-44.02999877929688,20.100000381469727,-6.150000095367432,12.600000381469728,9.925783157348633,0.8494823575019836,1.4524952173233032,19.18000030517578,0.0,11.270000457763672,28.641969680786133,-162.2292938232422,-99.7435302734375,3.792759418487549,6.90114688873291,6.748000621795654,-43.61000061035156,-0.4200000166893005,-2.870000123977661,59.92646408081055,-151.50209045410156,120.63844299316406,,,,,,,,,
4265,1720095588.56684,9.63624095916748,0.2919347882270813,2.955241441726685,23.3799991607666,-6.300000190734863,5.25,169.52105712890625,-219.1954040527344,164.6798095703125,-3.034207344055176,-7.104544162750244,1.904754877090454,122.63999938964844,78.75,-43.04999923706055,19.80000114440918,-5.25,9.450000762939451,9.909032821655272,0.95477032661438,1.4596738815307615,20.71999931335449,1.680000066757202,12.25,30.502931594848636,-163.86668395996094,-99.34532165527344,3.8693323135375977,6.975327014923096,6.807823657989502,-40.25,0.8400000333786011,-2.450000047683716,59.92646408081055,-151.50209045410156,120.63844299316406,8.114351272583008,-5.4773664474487305,3.366821765899658,51.2400016784668,-49.630001068115234,105.0,150.27072143554688,-112.4832763671875,-201.08502197265625
4266,1720095588.5924811,9.473523139953612,0.3110780417919159,2.8355960845947266,21.700000762939453,-4.760000228881836,4.829999923706055,169.5133819580078,-217.5970916748047,165.24356079101562,-1.6917860507965088,-7.796094417572021,3.603719472885132,92.26000213623048,76.0199966430664,-49.0,21.30000114440918,-5.100000381469727,6.450000286102295,9.734350204467772,1.081594467163086,1.517103672027588,21.420000076293945,3.920000076293945,13.859999656677246,30.218111038208008,-166.76791381835938,-102.1006851196289,3.744901180267334,6.563746929168701,6.688178062438965,-38.77999877929688,4.480000019073486,-3.569999933242798,59.92646408081055,-151.50209045410156,120.63844299316406,7.8032732009887695,-4.917426109313965,3.99376368522644,45.43000030517578,-51.02999877929688,102.76000213623048,153.27322387695312,-116.99332427978516,-202.8859100341797
4267,1720095588.541396,9.497451782226562,0.3015064299106598,2.806881189346313,20.93000030517578,-6.860000133514404,4.829999923706055,170.76412963867188,-219.4063873291016,164.77427673339844,-3.2280330657958984,-8.372785568237305,3.503217458724976,104.16000366210938,64.75,-46.47999954223633,23.25,-4.050000190734863,3.0,9.779815673828123,1.0528795719146729,1.6008554697036743,21.700000762939453,4.900000095367432,15.75,28.101551055908203,-162.94606018066406,-100.84827423095705,3.6300415992736816,6.539817810058594,6.860467433929443,-37.45000076293945,5.389999866485596,-3.849999904632568,59.92646408081055,-151.50209045410156,120.63844299316406,7.896596908569336,-5.106465816497803,3.625255823135376,58.02999877929688,-47.31999969482422,97.72000122070312,149.51316833496094,-114.48712158203124,-202.13607788085935
4268,1720095588.5413709,9.475915908813477,0.1986113786697387,2.833203077316284,19.31999969482422,-7.139999866485596,4.619999885559082,169.6503143310547,-221.32766723632807,165.42245483398438,-2.677664041519165,-7.602269172668457,2.0339717864990234,105.06999969482422,38.43000030517578,-44.09999847412109,21.0,-3.6000001430511475,0.1500000059604644,9.887495994567873,1.05048668384552,1.5888910293579102,21.770000457763672,5.110000133514404,15.539999961853027,28.587522506713867,-164.8810272216797,-100.6337890625,3.74968695640564,6.5733184814453125,7.011220932006836,-42.70000076293945,5.670000076293945,-2.5199999809265137,59.92646408081055,-151.50209045410156,120.63844299316406,8.15981674194336,-5.384043216705322,3.103601694107056,62.93000030517578,-37.2400016784668,90.79000091552734,152.18295288085938,-118.90965270996094,-201.53607177734372
4269,1720095588.5670118,9.40173625946045,0.1746822893619537,2.823631525039673,18.6200008392334,-7.0,4.550000190734863,170.72215270996094,-219.61622619628903,168.52236938476562,-0.0215361732989549,-9.030835151672363,2.47426700592041,88.69000244140625,26.040000915527344,-49.84000015258789,20.850000381469727,-3.3000001907348637,-1.8000000715255735,9.916211128234863,1.100737690925598,1.433351993560791,20.299999237060547,4.96999979019165,14.90999984741211,30.828744888305664,-166.31614685058594,-100.06208801269533,3.8621537685394287,6.417779445648193,7.142830848693848,-51.65999984741211,8.119999885559082,-1.2599999904632568,59.92646408081055,-151.50209045410156,120.63844299316406,7.997098922729492,-5.159110069274902,3.1849606037139893,40.67000198364258,-24.989999771118164,85.54000091552734,152.7773895263672,-115.82101440429688,-200.7121734619141
4270,1720095588.592653,9.28926944732666,0.2105759084224701,2.866703987121582,18.200000762939453,-8.329999923706055,4.340000152587891,170.11622619628906,-220.0670166015625,166.62411499023438,-0.3015064299106598,-9.547703742980955,3.613291263580322,85.75,27.299999237060547,-57.470001220703125,21.900001525878903,-2.8500001430511475,-3.6000001430511475,9.796566009521484,0.93323415517807,1.6630711555480957,18.200000762939453,5.949999809265137,15.050000190734863,28.364036560058597,-163.24937438964844,-100.34304809570312,3.6659352779388423,5.83390998840332,7.090186595916748,-53.47999954223633,13.09000015258789,-1.1200000047683716,59.92646408081055,-151.50209045410156,120.63844299316406,6.786287307739258,-4.139730930328369,3.826260089874268,21.489999771118164,-25.200000762939453,77.7699966430664,151.8116912841797,-119.38981628417967,-202.6000061035156
4271,1720095588.541653,,,,,,,,,,-0.7322298884391785,-7.815237998962402,3.912404775619507,99.81999969482422,25.76000022888184,-64.33000183105469,22.650001525878903,-2.25,-5.550000190734863,9.89706802368164,0.9691277742385864,1.983720779418945,17.989999771118164,8.680000305175781,14.84000015258789,28.980159759521484,-166.27606201171875,-100.88371276855467,3.352464199066162,5.470187664031982,7.126080513000488,-46.34000015258789,14.489999771118164,-2.309999942779541,59.92646408081055,-151.50209045410156,120.63844299316406,6.748000621795654,-4.630277156829834,3.759258508682251,17.780000686645508,-34.790000915527344,67.97000122070312,150.27224731445312,-119.92300415039062,-202.6842041015625
4272,1720095588.54142,9.38259220123291,0.1124666780233383,2.6537351608276367,20.440000534057617,-9.170000076293944,4.550000190734863,171.0943145751953,-218.0955352783203,168.08853149414062,-0.6652284264564514,-6.7838945388793945,3.6276485919952393,84.48999786376953,17.71000099182129,-62.86000061035156,22.200000762939453,-2.8500001430511475,-6.750000476837158,9.99996280670166,0.983485221862793,1.8951832056045528,17.639999389648438,10.989999771118164,15.190000534057615,30.58509826660156,-166.00888061523438,-100.0059814453125,3.5391111373901367,6.034914016723633,7.298369884490967,-39.83000183105469,14.84000015258789,-1.6100000143051147,59.92646408081055,-151.50209045410156,120.63844299316406,7.427586555480957,-5.7860517501831055,3.436216115951538,11.34000015258789,-36.470001220703125,59.92000198364258,152.27879333496094,-121.8095474243164,-199.10687255859372
4273,1720095588.567061,9.349091529846191,0.0622156113386154,2.8284173011779785,19.46000099182129,-13.510000228881836,4.619999885559082,169.4131317138672,-219.4191131591797,166.4633026123047,1.6056413650512695,-8.009063720703125,3.8980472087860103,20.15999984741211,9.869999885559082,-60.970001220703125,24.450000762939453,-0.9000000357627869,-8.850000381469727,9.916211128234863,0.806410014629364,1.8425391912460327,14.489999771118164,12.949999809265137,16.799999237060547,27.96790313720703,-165.05490112304688,-101.78194427490234,3.68029260635376,6.460851669311523,7.319905757904053,-39.27000045776367,20.229999542236328,-0.4200000166893005,59.92646408081055,-151.50209045410156,120.63844299316406,7.60466194152832,-6.460851669311523,3.302213191986084,4.480000019073486,-24.07999992370605,59.08000183105469,151.05160522460938,-119.51448822021484,-201.77589416503903
4274,1720095588.5927022,9.612311363220217,0.1746822893619537,2.605876922607422,19.950000762939453,-10.779999732971191,4.550000190734863,170.99790954589844,-220.476318359375,167.10638427734375,1.7085363864898682,-9.64341926574707,4.111016273498535,-31.71000099182129,9.100000381469728,-59.08000183105469,24.30000114440918,-0.6000000238418579,-9.450000762939451,9.956890106201172,0.5862624645233154,1.868861198425293,10.920000076293944,13.579999923706056,17.850000381469727,28.286041259765625,-165.90606689453125,-101.9349594116211,3.357249975204468,5.809980869293213,7.547232151031494,-40.459999084472656,26.31999969482422,2.6600000858306885,59.92646408081055,-151.50209045410156,120.63844299316406,6.76235818862915,-6.092343807220459,3.486467123031616,-2.0999999046325684,-18.479999542236328,59.290000915527344,149.97930908203125,-121.9865951538086,-202.2069396972656
4275,1720095588.541791,9.712814331054688,0.2967205941677093,2.548447132110596,18.200000762939453,-7.070000171661377,4.269999980926514,169.3359832763672,-221.51605224609372,167.2135772705078,1.2849916219711304,-10.019105911254885,3.8597607612609854,-45.56999969482422,6.510000228881836,-60.619998931884766,23.850000381469727,-2.700000047683716,-7.650000095367432,10.002355575561523,0.6221560835838318,1.995685338973999,10.989999771118164,15.050000190734863,19.46000099182129,27.552927017211918,-166.86439514160156,-103.78215789794922,2.9911351203918457,5.230896949768066,8.011456489562988,-38.150001525878906,27.86000061035156,6.579999923706055,59.92646408081055,-151.50209045410156,120.63844299316406,6.008592128753662,-6.068414688110352,4.012907028198242,7.0,-28.13999938964844,52.36000061035156,150.58950805664062,-121.814697265625,-201.3394317626953
4276,1720095588.5416248,9.624276161193848,0.1507532149553299,2.6106626987457275,14.06999969482422,-8.050000190734863,4.130000114440918,170.4840087890625,-222.7874298095703,165.9992218017578,,,,,,,,,,10.167466163635254,0.5479759573936462,1.904754877090454,13.93000030517578,15.890000343322754,21.13999938964844,28.476667404174805,-163.02464294433594,-101.9862060546875,2.9528486728668213,5.202182292938232,8.492430686950684,-29.540000915527344,21.90999984741211,7.909999847412109,59.92646408081055,-151.50209045410156,120.63844299316406,6.331634998321533,-6.606819152832031,3.991370677947998,26.530000686645508,-36.2599983215332,42.560001373291016,148.4856719970703,-123.34947967529295,-204.401123046875
4277,1720095588.5672655,9.64341926574707,0.1005021408200264,2.5963053703308105,12.739999771118164,-9.59000015258789,4.550000190734863,169.0919189453125,-221.48866271972656,166.0985870361328,0.588655412197113,-8.415857315063477,3.7209720611572266,-30.65999984741211,5.670000076293945,-60.27000045776367,24.750001907348636,-0.3000000119209289,-9.0,10.184216499328612,0.4857603311538696,1.8425391912460327,15.75,15.050000190734863,21.280000686645508,27.897686004638672,-164.78988647460938,-102.7157974243164,3.3261423110961914,5.271576404571533,8.104779243469238,-18.270000457763672,15.890000343322754,4.550000190734863,59.92646408081055,-151.50209045410156,120.63844299316406,6.793466091156006,-6.951397895812988,3.833438873291016,41.22999954223633,-29.68000030517578,39.060001373291016,150.8862762451172,-120.79065704345705,-200.1785888671875
4278,1720095588.592907,9.518988609313965,0.0239290818572044,2.5532329082489014,10.5,-9.239999771118164,5.110000133514404,171.49034118652344,-220.80999755859372,168.3056182861328,1.3448143005371094,-7.518517017364502,3.697042942047119,-29.540000915527344,6.650000095367432,-54.810001373291016,25.200000762939453,-1.8000000715255735,-9.0,10.059785842895508,0.3756865561008453,1.8425391912460327,20.15999984741211,15.960000038146973,19.739999771118164,28.38793563842773,-167.0037384033203,-103.5320816040039,3.3285350799560547,5.7932305335998535,8.15024471282959,-13.440000534057615,14.980000495910645,-0.5600000023841858,59.92646408081055,-151.50209045410156,120.63844299316406,6.360349655151367,-6.211989402770996,3.5941479206085205,41.369998931884766,-19.670000076293945,38.5,154.62144470214844,-125.10301971435548,-197.46340942382807
4279,1720095588.5420609,9.612311363220217,0.0478581637144088,2.435980319976806,9.029999732971191,-10.079999923706056,5.809999942779541,169.1822967529297,-220.4292755126953,167.26707458496094,1.8880045413970947,-9.547703742980955,3.87172532081604,-37.93999862670898,8.470000267028809,-47.59999847412109,26.250001907348636,-2.25,-9.75,9.837244987487791,0.3469716608524322,1.8281817436218264,23.520000457763672,18.270000457763672,19.31999969482422,29.451570510864254,-168.49386596679688,-102.26131439208984,3.441001892089844,6.147380828857422,8.49960994720459,-13.93000030517578,13.579999923706056,-3.640000104904175,59.92646408081055,-151.50209045410156,120.63844299316406,6.092343807220459,-5.608976364135742,3.943512439727783,37.59000015258789,-23.3799991607666,33.810001373291016,152.86587524414062,-121.36273193359376,-197.7699279785156
4280,1720095588.5417488,9.588382720947266,-0.0550368875265121,2.536482572555542,9.100000381469728,-10.56999969482422,6.300000190734863,170.57481384277344,-221.4481658935547,168.33880615234375,1.404637098312378,-9.205517768859863,4.256983280181885,-32.130001068115234,10.220000267028809,-42.0,26.100000381469727,-2.400000095367432,-7.500000476837158,9.61949062347412,0.4953319728374481,2.0818300247192383,28.979999542236328,19.670000076293945,20.020000457763672,29.95212745666504,-169.66519165039062,-104.29471588134766,3.8477962017059326,6.183274745941162,8.980584144592285,-14.84000015258789,12.18000030517578,-7.769999980926514,59.92646408081055,-151.50209045410156,120.63844299316406,6.568532943725586,-5.726229190826416,4.084693908691406,36.61000061035156,-27.440000534057617,26.880001068115234,150.755126953125,-125.25946044921876,-199.1474609375
4281,1720095588.5673895,9.612311363220217,-0.0382865294814109,2.3498356342315674,9.029999732971191,-9.3100004196167,7.070000171661377,171.75621032714844,-222.4327392578125,169.27784729003906,1.217990159988403,-8.571396827697754,3.831045866012573,-20.299999237060547,14.770000457763672,-37.869998931884766,27.30000114440918,-2.700000047683716,-9.600000381469728,9.753493309020996,0.8183745741844177,1.9191123247146609,35.349998474121094,19.18000030517578,17.639999389648438,30.756778717041016,-167.65142822265625,-101.84034729003906,4.003335475921631,6.47520923614502,9.270126342773438,-12.18000030517578,14.630000114440918,-13.15999984741211,59.92646408081055,-151.50209045410156,120.63844299316406,6.824573993682861,-6.104308605194092,3.907618999481201,30.940000534057617,-19.600000381469727,21.350000381469727,149.3241729736328,-120.28824615478516,-202.4622344970703
4282,1720095588.593031,9.633848190307615,-0.1148595884442329,2.354621648788452,7.909999847412109,-8.960000038146973,8.399999618530273,171.16067504882812,-217.80178833007807,171.2242431640625,1.4357448816299438,-7.791308879852295,3.811902523040772,-24.920000076293945,17.079999923706055,-37.310001373291016,27.750001907348636,-0.75,-9.90000057220459,9.758278846740724,1.0528795719146729,1.809038519859314,35.70000076293945,19.040000915527344,11.6899995803833,28.0278377532959,-165.88162231445312,-103.47093963623048,3.809509754180908,6.063629150390625,8.796330451965332,-9.380000114440918,21.84000015258789,-17.5,59.92646408081055,-151.50209045410156,120.63844299316406,6.556568145751953,-6.477602005004883,3.656363487243652,18.200000762939453,-8.890000343322754,20.440000534057617,151.81932067871094,-121.46892547607422,-199.3237762451172
4283,1720095588.5422328,9.77263641357422,0.0765730589628219,2.304370403289795,9.170000076293944,-9.730000495910645,8.539999961853027,171.3880157470703,-219.9921875,168.7316436767578,1.8521108627319336,-9.81092357635498,3.996156454086304,-34.369998931884766,16.799999237060547,-31.920000076293945,27.750001907348636,-0.75,-8.40000057220459,9.535738945007324,1.2251689434051514,1.9502201080322263,32.40999984741211,17.71000099182129,6.300000190734863,26.828800201416016,-168.1006317138672,-106.5197982788086,3.105994701385498,5.53001070022583,8.545074462890625,-9.170000076293944,28.420000076293945,-23.170000076293945,59.92646408081055,-151.50209045410156,120.63844299316406,6.073200702667236,-6.307705879211426,3.91479754447937,6.720000267028809,-8.609999656677246,19.739999771118164,151.98583984375,-123.8731460571289,-198.6295928955078
4284,1720095588.541914,9.803744316101074,0.0358936227858066,2.278048515319824,7.630000114440918,-8.819999694824219,8.050000190734863,167.26260375976562,-221.16473388671875,167.00938415527344,1.6008554697036743,-9.961676597595217,3.582183361053467,-23.8700008392334,13.93000030517578,-26.950000762939453,26.850000381469727,-1.2000000476837158,-8.550000190734863,9.492666244506836,1.3328498601913452,1.9215052127838133,27.86000061035156,14.770000457763672,0.8400000333786011,28.55622291564941,-167.32687377929688,-105.83346557617188,2.7279152870178223,5.175860404968262,8.346463203430176,-1.190000057220459,29.88999938964844,-28.90999984741211,59.92646408081055,-151.50209045410156,120.63844299316406,6.11148738861084,-6.185667514801025,4.185196399688721,5.949999809265137,-14.630000114440918,15.68000030517578,149.7845001220703,-120.06912231445312,-199.9031219482422
4285,1720095588.567555,9.796566009521484,-0.0095716323703527,2.390515089035034,7.699999809265137,-9.029999732971191,7.28000020980835,171.52923583984375,-224.0016632080078,167.8797607421875,1.074415683746338,-10.993020057678224,3.5175747871398926,4.96999979019165,9.730000495910645,-21.770000457763672,27.150001525878903,-2.25,-7.200000286102295,9.39934253692627,1.5673547983169556,2.1201164722442627,27.299999237060547,10.56999969482422,-4.550000190734863,27.60804557800293,-172.2121124267578,-106.83329010009766,2.5747690200805664,4.233054637908936,8.344070434570312,16.59000015258789,30.729999542236328,-36.18999862670898,59.92646408081055,-151.50209045410156,120.63844299316406,6.4393157958984375,-6.535031795501709,3.8980472087860103,10.149999618530272,-13.859999656677246,12.18000030517578,151.4766387939453,-126.18326568603516,-199.596435546875
4286,1720095588.5931962,9.82767391204834,0.0909305065870285,2.251726627349853,6.579999923706055,-6.369999885559082,7.349999904632568,168.68765258789062,-222.45655822753903,167.89231872558594,1.0648441314697266,-8.494823455810547,3.3476784229278564,32.47999954223633,6.579999923706055,-20.71999931335449,27.900001525878903,-0.9000000357627869,-8.550000190734863,9.30601978302002,1.890397429466248,1.7133221626281738,23.940000534057617,6.929999828338623,-9.380000114440918,29.532983779907227,-166.67581176757812,-104.04236602783205,2.3211207389831543,4.553704261779785,8.291426658630371,40.810001373291016,32.20000076293945,-48.5099983215332,59.92646408081055,-151.50209045410156,120.63844299316406,6.618783950805664,-6.82218074798584,3.723365068435669,6.440000057220459,-9.3100004196167,10.779999732971191,150.943115234375,-125.01888275146484,-198.5453338623047
4287,1720095588.542328,9.77263641357422,0.0741801485419273,2.1201164722442627,3.3600001335144043,-4.409999847412109,7.28000020980835,168.57843017578125,-223.51991271972656,166.1625213623047,1.6295703649520874,-7.6692705154418945,3.4888598918914795,19.950000762939453,14.0,-15.539999961853027,27.000001907348636,-1.350000023841858,-7.350000381469727,9.286876678466797,1.876039981842041,1.6343562602996826,12.31999969482422,2.940000057220459,-14.770000457763672,29.21309280395508,-167.42494201660156,-104.7337646484375,1.6487137079238892,4.6685638427734375,7.894203662872314,66.5,36.2599983215332,-58.72999954223633,59.92646408081055,-151.50209045410156,120.63844299316406,6.496745586395264,-6.23352575302124,4.259376525878906,1.399999976158142,-7.840000152587891,7.699999809265137,148.4124755859375,-121.96597290039062,-200.7909240722656
4288,1720095588.542085,9.765458106994627,0.0311078056693077,2.17036771774292,0.0700000002980232,-5.389999866485596,7.349999904632568,170.98199462890625,-222.5603790283203,169.68096923828125,1.438137769699097,-10.698692321777344,4.429272651672363,-2.6600000858306885,15.960000038146973,-11.199999809265137,26.250001907348636,0.0,-10.050000190734863,9.231839179992676,1.7276796102523804,1.837753415107727,4.340000152587891,-1.5399999618530271,-19.950000762939453,29.24695205688477,-166.37745666503906,-105.24923706054688,0.746587336063385,4.90546178817749,7.712342739105225,89.80999755859375,36.400001525878906,-67.62000274658203,59.92646408081055,-151.50209045410156,120.63844299316406,6.659463405609131,-5.93680477142334,4.642241477966309,1.9600000381469729,-7.420000076293945,2.870000123977661,151.93524169921875,-127.08363342285156,-201.72171020507807
4289,1720095588.567726,9.779815673828123,-0.016750356182456,2.2852272987365723,0.7699999809265137,-4.130000114440918,6.369999885559082,170.8166961669922,-223.3557281494141,167.43829345703125,0.9691277742385864,-10.413935661315918,4.680528163909912,3.7100000381469727,11.970000267028809,-9.520000457763672,28.500001907348636,-1.5,-9.0,9.260554313659668,1.679821491241455,1.739644169807434,3.920000076293945,-5.389999866485596,-26.38999938964844,29.132137298583984,-168.48233032226562,-105.62158966064452,0.4857603311538696,5.699907302856445,7.214617729187012,109.34000396728516,29.399999618530277,-75.94999694824219,59.92646408081055,-151.50209045410156,120.63844299316406,6.786287307739258,-6.5733184814453125,4.024871349334717,0.1400000005960464,-4.900000095367432,0.2800000011920929,151.9833221435547,-121.99397277832033,-196.75442504882807
4290,1720095588.593367,9.858781814575195,-0.0071787242777645,2.036364793777466,0.6299999952316284,-1.4700000286102295,5.670000076293945,169.96031188964844,-221.34120178222656,168.5020751953125,2.069865465164185,-8.478073120117188,3.809509754180908,14.90999984741211,17.850000381469727,-8.399999618530273,27.900001525878903,0.4500000178813934,-8.40000057220459,9.239018440246582,2.0052568912506104,1.619998812675476,0.2100000083446502,-6.230000019073486,-33.31999969482422,28.67224502563477,-168.42156982421875,-107.00959777832033,0.3326142132282257,6.659463405609131,7.047114372253418,121.59000396728516,27.3700008392334,-83.0199966430664,59.92646408081055,-151.50209045410156,120.63844299316406,6.594854831695557,-6.870038986206055,4.029657363891602,-1.9600000381469729,0.5600000023841858,-2.309999942779541,149.03297424316406,-120.75155639648438,-201.1405487060547
4291,1720095588.5424478,9.94731903076172,-0.2201475501060485,2.0052568912506104,-3.289999961853028,-1.2599999904632568,5.110000133514404,169.45286560058594,-222.051025390625,168.379638671875,1.1629533767700195,-10.928411483764648,5.178253173828125,1.680000066757202,24.07999992370605,-3.0799999237060547,26.700000762939453,-1.350000023841858,-9.600000381469728,9.363449096679688,2.0914015769958496,1.8042527437210083,-2.450000047683716,-7.0,-40.18000030517578,29.508115768432617,-168.0011749267578,-104.41732788085938,0.1196454018354415,7.319905757904053,6.9609694480896,133.27999877929688,30.380001068115234,-88.19999694824219,59.92646408081055,-151.50209045410156,120.63844299316406,6.602033615112305,-6.623569488525391,4.295269966125488,-2.309999942779541,3.289999961853028,-3.920000076293945,150.25491333007812,-127.84747314453124,-201.00474548339844
4292,1720095588.5422058,10.052606582641602,-0.2368979007005691,2.220618724822998,-5.039999961853027,-1.6100000143051147,4.130000114440918,171.57467651367188,-221.0720367431641,169.66046142578125,1.103130578994751,-11.426136016845703,3.81908130645752,9.3100004196167,13.789999961853027,3.5,25.05000114440918,-1.0500000715255735,-10.350000381469728,9.389771461486816,2.1033661365509038,1.868861198425293,-4.480000019073486,-10.43000030517578,-47.18000030517578,29.853761672973636,-164.88613891601562,-104.8487548828125,-0.509689450263977,7.932490348815918,6.262240409851074,136.14999389648438,37.869998931884766,-92.26000213623048,59.92646408081055,-151.50209045410156,120.63844299316406,6.405815124511719,-6.453673362731934,4.474738121032715,-2.0299999713897705,3.0799999237060547,-7.0,151.0326385498047,-124.51924896240234,-199.7190399169922
4293,1720095588.5678468,9.918603897094728,-0.1244312226772308,2.383336544036865,-4.480000019073486,-0.5600000023841858,3.150000095367432,170.06265258789062,-222.1590118408203,168.0760498046875,0.2967205941677093,-10.495294570922852,4.702064514160156,12.529999732971191,-4.409999847412109,13.649999618530272,27.000001907348636,-0.4500000178813934,-9.450000762939451,9.552489280700684,2.3570144176483154,1.799466848373413,-4.130000114440918,-14.630000114440918,-54.810001373291016,30.794591903686523,-162.64271545410156,-103.33588409423828,-1.404637098312378,8.451751708984375,5.996627807617188,129.5,40.67000198364258,-93.94000244140624,59.92646408081055,-151.50209045410156,120.63844299316406,6.324456214904785,-5.80758810043335,4.417308330535889,4.550000190734863,2.940000057220459,-16.030000686645508,151.69467163085938,-123.85565185546876,-201.14788818359372
4294,1720095588.593488,9.681706428527832,-0.105287954211235,2.4264087677001958,-6.510000228881836,0.4900000095367431,3.220000028610229,169.45156860351562,-223.37144470214844,168.70632934570312,2.218225717544556,-8.669506072998047,5.872196674346924,-13.579999923706056,0.2100000083446502,20.71999931335449,27.600000381469727,-1.350000023841858,-11.25,9.696063995361328,2.5388755798339844,1.6056413650512695,-5.320000171661377,-17.780000686645508,-60.40999984741211,29.523242950439453,-162.4376678466797,-104.27232360839844,-1.5338541269302368,9.014084815979004,5.826731204986572,113.88999938964844,37.79999923706055,-93.66000366210938,59.92646408081055,-151.50209045410156,120.63844299316406,6.647498607635498,-5.075357913970947,3.9315478801727295,7.769999980926514,3.569999933242798,-27.51000022888184,151.0464324951172,-120.27615356445312,-199.24734497070312
4295,1720095588.542574,9.463951110839844,-0.1866468340158462,2.3785505294799805,-6.720000267028809,2.309999942779541,3.0799999237060547,170.8377227783203,-221.47161865234372,170.01512145996094,0.98109233379364,-6.968148231506348,3.6515777111053462,-5.110000133514404,0.5600000023841858,21.21000099182129,27.30000114440918,-1.6500000953674316,-9.600000381469728,9.528559684753418,2.641770601272583,1.749215841293335,-4.690000057220459,-18.96999931335449,-64.88999938964844,29.488067626953125,-164.80555725097656,-103.43016052246094,-1.5338541269302368,9.03562068939209,5.592226028442383,94.98999786376952,36.959999084472656,-93.23999786376952,59.92646408081055,-151.50209045410156,120.63844299316406,6.769536972045898,-4.7666730880737305,3.4170727729797363,-3.5,6.019999980926514,-35.90999984741211,153.05267333984375,-117.44176483154295,-199.4592742919922
4296,1720095588.542353,,,,,,,,,,1.3328498601913452,-9.459165573120115,3.694650173187256,-13.510000228881836,-6.230000019073486,19.46000099182129,25.650001525878903,-0.3000000119209289,-9.300000190734863,9.468737602233888,2.814059972763061,1.844932198524475,-6.440000057220459,-19.040000915527344,-69.58000183105469,29.229969024658203,-160.26112365722656,-103.74434661865234,-1.928683876991272,8.257925987243652,5.259612083435059,76.72000122070312,38.56999969482422,-93.30999755859376,59.92646408081055,-151.50209045410156,120.63844299316406,6.76235818862915,-4.560883045196533,3.376393318176269,-17.43000030517578,10.079999923706056,-41.650001525878906,152.21075439453125,-119.66437530517578,-198.0252227783203
4297,1720095588.542646,9.480701446533203,-0.0837517827749252,2.1655819416046143,-7.630000114440918,3.5,3.3600001335144043,170.0164031982422,-221.6091766357422,169.0149383544922,1.4812101125717163,-10.42590045928955,4.410129547119141,2.940000057220459,-13.789999961853027,21.06999969482422,24.750001907348636,-2.8500001430511475,-8.40000057220459,9.516595840454102,3.034207344055176,1.9334697723388672,-9.380000114440918,-19.600000381469727,-74.69000244140625,29.785404205322266,-158.50082397460938,-103.71640014648438,-2.4551236629486084,8.076065063476562,5.068179130554199,60.970001220703125,39.54999923706055,-94.98999786376952,59.92646408081055,-151.50209045410156,120.63844299316406,6.94421911239624,-4.950926780700684,3.697042942047119,-31.43000030517578,12.390000343322754,-45.36000061035156,152.9381866455078,-123.78678131103516,-199.88233947753903
4298,1720095588.568287,9.456772804260254,-0.0813588723540306,2.172760486602783,-9.65999984741211,1.190000057220459,3.3600001335144043,171.41319274902344,-222.90695190429688,169.055908203125,2.017221450805664,-9.944926261901855,3.295034408569336,11.619999885559082,-21.06999969482422,26.739999771118164,24.450000762939453,0.1500000059604644,-7.500000476837158,9.547703742980955,3.385964870452881,1.8784328699111936,-11.130000114440918,-19.600000381469727,-77.55999755859375,28.36374282836914,-158.5284423828125,-104.13232421875,-2.7231295108795166,8.695828437805176,4.874353885650635,45.709999084472656,38.220001220703125,-96.52999877929688,59.92646408081055,-151.50209045410156,120.63844299316406,7.130866050720215,-5.4558305740356445,3.7903664112091056,-41.790000915527344,13.720000267028809,-46.27000045776367,151.232666015625,-121.6358642578125,-199.4896240234375
4299,1720095588.5426698,9.593168258666992,-0.0215361732989549,2.3067634105682373,-12.18000030517578,-0.8400000333786011,3.150000095367432,170.78797912597656,-224.12237548828125,169.26519775390625,1.6965718269348145,-11.35434913635254,4.02008581161499,8.399999618530273,-24.290000915527344,35.90999984741211,24.30000114440918,-1.350000023841858,-7.950000286102295,9.485487937927246,3.704221725463867,1.7851094007492063,-16.799999237060547,-19.040000915527344,-78.95999908447266,28.235340118408203,-155.83641052246094,-102.53276824951172,-2.955241441726685,9.049978256225586,5.037071704864502,30.59000015258789,37.869998931884766,-95.34000396728516,59.92646408081055,-151.50209045410156,120.63844299316406,7.231368064880371,-5.740586280822754,3.91479754447937,-48.790000915527344,13.15999984741211,-46.83000183105469,149.29811096191406,-118.41402435302734,-201.2887115478516
4300,1720095588.542472,9.664956092834473,-0.2010042816400528,2.3354783058166504,-17.079999923706055,-0.9100000262260436,1.9600000381469729,174.71937561035156,-224.5118103027344,170.57168579101562,1.6271774768829346,-11.734821319580078,4.692492961883545,11.619999885559082,-26.31999969482422,48.58000183105469,22.950000762939453,-0.3000000119209289,-8.100000381469727,9.571632385253906,3.8047239780426025,1.8497179746627808,-23.450000762939453,-17.010000228881836,-79.94000244140625,31.64219856262207,-155.33935546875,-101.06562042236328,-3.2567479610443115,8.595325469970703,5.223718166351318,20.51000022888184,38.08000183105469,-92.19000244140624,59.92646408081055,-151.50209045410156,120.63844299316406,7.286405086517334,-5.960733890533447,3.457752227783203,-56.70000076293945,12.25,-48.369998931884766,154.4365234375,-122.4228973388672,-197.54782104492188
4301,1720095588.542717,9.63624095916748,-0.1579319387674331,1.9502201080322263,-14.84000015258789,6.230000019073486,0.2100000083446502,168.54885864257812,-224.8462677001953,165.647216796875,1.3400285243988037,-11.495530128479004,4.3526997566223145,13.720000267028809,-28.90999984741211,61.95000076293945,25.350000381469727,-2.700000047683716,-7.800000190734863,9.447200775146484,3.974620342254639,1.7683590650558472,-30.030000686645508,-13.93000030517578,-81.55000305175781,30.51216697692871,-154.623779296875,-101.63213348388672,-3.4601449966430664,7.949240684509277,5.305077075958252,15.890000343322754,37.02999877929688,-91.13999938964844,59.92646408081055,-151.50209045410156,120.63844299316406,7.485016345977783,-6.489566802978516,3.141888380050659,-63.70000076293945,13.649999618530272,-51.17000198364258,153.09024047851562,-121.95384216308594,-199.55844116210935
4302,1720095588.568358,9.885103225708008,-0.588655412197113,2.318727970123291,-16.729999542236328,1.75,-1.2599999904632568,167.6193084716797,-220.9674072265625,166.48123168945312,1.32806396484375,-11.335206031799316,4.182803153991699,14.140000343322754,-31.920000076293945,74.76000213623047,23.700000762939453,-1.350000023841858,-7.500000476837158,9.535738945007324,3.910011768341065,1.749215841293335,-32.619998931884766,-14.0,-83.86000061035156,28.520082473754883,-156.97438049316406,-104.83918762207033,-3.589362144470215,7.764986991882324,4.9078545570373535,15.119999885559082,35.4900016784668,-90.86000061035156,59.92646408081055,-151.50209045410156,120.63844299316406,7.485016345977783,-6.774322986602783,3.2232472896575928,-61.25,20.93000030517578,-52.56999969482422,151.79884338378906,-118.55316925048828,-199.50770568847656
4303,1720095588.542841,9.674527168273926,0.1196454018354415,1.986113667488098,-19.8799991607666,5.949999809265137,-1.9600000381469729,169.62969970703125,-223.4127197265625,167.85670471191406,1.0409150123596191,-11.048056602478027,4.185196399688721,14.350000381469728,-37.2400016784668,85.33000183105469,24.450000762939453,-0.9000000357627869,-6.750000476837158,9.430450439453123,4.137338161468506,1.591283917427063,-29.68000030517578,-14.770000457763672,-84.55999755859375,28.856739044189453,-153.58143615722656,-104.38018035888672,-3.929155111312866,7.884632110595703,4.620705604553223,10.079999923706056,35.349998474121094,-91.48999786376952,59.92646408081055,-151.50209045410156,120.63844299316406,7.202653408050537,-6.712107181549072,3.505610466003418,-52.92000198364258,25.549999237060547,-54.810001373291016,154.01345825195312,-122.9139633178711,-200.15538024902344
4304,1720095588.542599,9.803744316101074,-0.4355092644691467,2.151224374771118,-20.86000061035156,0.9800000190734864,-1.4700000286102295,170.48178100585938,-225.14840698242188,167.8236846923828,-0.0071787242777645,-10.734585762023926,4.792994976043701,19.950000762939453,-45.150001525878906,94.63999938964844,24.450000762939453,-2.8500001430511475,-4.650000095367432,9.195945739746094,4.221089839935303,1.3448143005371094,-27.86000061035156,-16.030000686645508,-86.37999725341797,32.15403366088867,-150.38839721679688,-100.75215911865234,-4.233054637908936,7.169152736663818,4.302448749542236,9.730000495910645,33.95000076293945,-91.27999877929688,59.92646408081055,-151.50209045410156,120.63844299316406,7.133258819580078,-6.951397895812988,3.079672813415528,-42.4900016784668,25.96999931335449,-57.26000213623047,151.5247344970703,-120.61280822753906,-198.4691162109375
4305,1720095588.5428908,9.746315002441406,-0.7106937170028687,2.4288017749786377,-22.96000099182129,2.940000057220459,-1.190000057220459,170.84495544433594,-223.34979248046875,168.2802734375,0.1627177447080612,-10.882946014404297,3.910011768341065,27.57999992370605,-52.36000061035156,106.0500030517578,19.80000114440918,-1.6500000953674316,-3.6000001430511475,8.94947624206543,4.591990470886231,1.1198810338974,-28.700000762939453,-18.549999237060547,-89.38999938964844,29.912813186645508,-148.95326232910156,-101.32386016845705,-4.345520973205566,6.599640369415283,4.204339504241943,19.11000061035156,30.170000076293945,-91.84000396728516,59.92646408081055,-151.50209045410156,120.63844299316406,7.477837562561035,-6.860467433929443,2.7662017345428467,-34.720001220703125,26.18000030517578,-56.77000045776367,155.24415588378906,-121.52764892578124,-199.63751220703125
4306,1720095588.5685318,9.595561027526855,-0.5934411883354187,2.304370403289795,-16.65999984741211,2.450000047683716,-1.399999976158142,169.8699493408203,-222.4005584716797,167.33358764648438,0.102895051240921,-9.564454078674316,3.787973403930664,22.26000022888184,-55.22999954223633,109.9000015258789,21.450000762939453,-2.25,-6.150000095367432,9.413700103759766,4.5991692543029785,1.079201579093933,-28.559999465942383,-23.239999771118164,-92.19000244140624,29.430665969848636,-148.05784606933594,-99.90023040771484,-4.446023464202881,6.865253448486328,4.142123699188232,34.720001220703125,27.440000534057617,-90.72000122070312,59.92646408081055,-151.50209045410156,120.63844299316406,7.559196472167969,-6.539817810058594,2.615448474884033,-27.020000457763672,24.07999992370605,-55.58000183105469,150.86151123046875,-117.59602355957033,-199.33175659179688
4307,1720095588.542964,9.64341926574707,-0.806410014629364,2.3306925296783447,-15.539999961853027,2.5199999809265137,-1.2599999904632568,171.8007049560547,-224.58285522460935,167.4945526123047,-0.3254354894161224,-9.413700103759766,3.7137932777404794,14.350000381469728,-58.72999954223633,116.34000396728516,20.100000381469727,-1.8000000715255735,-5.700000286102295,9.277304649353027,4.584811687469482,0.9882710576057434,-23.65999984741211,-23.450000762939453,-92.68000030517578,27.71661949157715,-144.8683624267578,-101.28596496582033,-4.630277156829834,7.760200977325439,4.182803153991699,44.2400016784668,24.920000076293945,-88.19999694824219,59.92646408081055,-151.50209045410156,120.63844299316406,7.39647912979126,-6.520674705505371,2.433587551116944,-17.149999618530273,19.8799991607666,-55.58000183105469,153.23594665527344,-117.20217895507812,-198.9974822998047
4308,1720095588.542693,9.56684684753418,-0.8853759765625,2.4407663345336914,-17.010000228881836,2.380000114440918,-0.7699999809265137,170.05751037597656,-222.4398651123047,166.76461791992188,-0.9978426694869996,-9.095443725585938,3.6635422706604,7.840000152587891,-60.970001220703125,117.73999786376952,18.75,-2.700000047683716,-3.900000095367432,8.710185050964355,4.821709632873535,0.9140908718109132,-17.56999969482422,-23.100000381469727,-94.22000122070312,29.03167724609375,-143.7440948486328,-99.41323852539062,-5.0418572425842285,8.128708839416504,3.7975451946258554,41.02000045776367,22.68000030517578,-85.4000015258789,59.92646408081055,-151.50209045410156,120.63844299316406,7.315120220184326,-6.403421878814697,2.471873998641968,-10.640000343322754,17.149999618530273,-57.75,152.47030639648438,-117.8875961303711,-200.6558990478516
4309,1720095588.543012,9.597954750061035,-0.8159816861152649,2.4623024463653564,-13.579999923706056,3.289999961853028,-0.4900000095367431,170.81549072265625,-220.1561584472656,168.98678588867188,-1.2897775173187256,-10.258397102355955,3.3141777515411377,-1.4700000286102295,-61.7400016784668,120.54000091552734,18.75,-3.150000095367432,-3.6000001430511475,8.643183708190918,4.745136737823486,0.8734114766120911,-17.079999923706055,-27.57999992370605,-95.9000015258789,27.835250854492188,-143.8030548095703,-99.27549743652344,-5.635298728942871,8.382356643676758,3.4888598918914795,30.65999984741211,19.8799991607666,-84.69999694824219,59.92646408081055,-151.50209045410156,120.63844299316406,7.583125591278076,-6.01577091217041,2.5340895652771,-8.050000190734863,10.920000076293944,-59.9900016784668,154.63406372070312,-117.17953491210938,-199.283203125
4310,1720095588.5686529,9.648205757141112,-0.6604426503181458,2.2995846271514893,-13.93000030517578,6.510000228881836,-0.4200000166893005,170.88014221191406,-220.9818878173828,167.4381103515625,-1.6774286031723022,-7.982741355895996,3.5797905921936035,-9.65999984741211,-57.959999084472656,110.38999938964844,17.850000381469727,-3.0,-3.0,8.65514850616455,5.096894264221191,0.9930568337440492,-17.989999771118164,-31.989999771118164,-94.98999786376952,29.50187873840332,-142.76231384277344,-99.24235534667967,-6.077986717224121,8.76761531829834,3.503217458724976,15.399999618530272,13.510000228881836,-84.27999877929688,59.92646408081055,-151.50209045410156,120.63844299316406,7.62141227722168,-5.896125316619873,2.7805593013763428,-8.890000343322754,10.43000030517578,-60.76000213623047,152.37051391601562,-118.9489517211914,-202.10504150390625
4311,1720095588.5430598,9.63624095916748,-0.600619912147522,2.3785505294799805,-15.399999618530272,5.179999828338623,-0.2800000011920929,173.45701599121094,-224.5846405029297,168.74481201171875,-2.2732627391815186,-8.241175651550293,4.046407699584961,-16.309999465942383,-58.59000015258789,106.61000061035156,16.950000762939453,-1.0500000715255735,-1.6500000953674316,8.542681694030762,5.484545230865479,0.5958341360092163,-21.700000762939453,-37.79999923706055,-91.9800033569336,25.630525588989254,-138.6796112060547,-101.01604461669922,-6.0755934715271,8.765222549438477,3.4242515563964844,2.0999999046325684,4.760000228881836,-83.2300033569336,59.92646408081055,-151.50209045410156,120.63844299316406,7.106936931610107,-5.707085609436035,2.6369848251342773,-6.369999885559082,8.119999885559082,-60.900001525878906,154.39984130859375,-116.87028503417967,-198.94644165039065
4312,1720095588.5428169,9.624276161193848,-0.5025107264518738,2.692021608352661,-15.050000190734863,3.3600001335144043,0.0,172.40280151367188,-223.09251403808597,167.75469970703125,-2.692021608352661,-7.262475967407227,3.2926416397094727,-31.920000076293945,-53.34000015258789,125.72000122070312,16.350000381469727,-1.6500000953674316,-2.5500001907348637,8.640790939331055,5.640084266662598,0.5766908526420593,-28.979999542236328,-40.31999969482422,-87.98999786376953,25.997943878173828,-137.6407012939453,-97.75025177001952,-6.010984897613525,8.492430686950684,3.371607542037964,-7.28000020980835,2.870000123977661,-82.66999816894531,59.92646408081055,-151.50209045410156,120.63844299316406,7.542446136474609,-5.273969650268555,2.3354783058166504,-3.289999961853028,-1.5399999618530271,-61.59999847412109,153.65567016601562,-114.91089630126952,-200.6969146728516
4313,1720095588.5431309,9.64581298828125,-0.5120823383331299,2.5747690200805664,-14.350000381469728,2.6600000858306885,0.699999988079071,168.54855346679688,-220.60614013671875,165.69793701171875,-3.352464199066162,-5.58983325958252,2.2014753818511963,-40.459999084472656,-57.18999862670898,108.91999816894533,16.5,-2.400000095367432,-0.75,8.703006744384766,5.460616111755371,0.8303391337394714,-40.459999084472656,-37.72999954223633,-83.93000030517578,24.66229820251465,-140.36924743652344,-101.02870178222656,-6.468030452728272,7.616626262664795,3.117959260940552,-11.130000114440918,4.199999809265137,-80.8499984741211,59.92646408081055,-151.50209045410156,120.63844299316406,7.915740013122559,-5.350542545318604,2.3211207389831543,-2.380000114440918,-10.56999969482422,-63.77000045776367,155.86138916015625,-114.47380065917967,-199.2323455810547
4314,1720095588.5687718,9.55727481842041,-0.727444052696228,2.5197322368621826,-13.230000495910645,2.1700000762939453,1.3300000429153442,170.00186157226562,-221.8920135498047,167.4228515625,-3.239997625350952,-7.133258819580078,2.931312322616577,-49.97999954223633,-60.619998931884766,98.3499984741211,15.000000953674316,-1.350000023841858,0.6000000238418579,8.42064380645752,5.4342942237854,0.6580497026443481,-50.2599983215332,-37.52000045776367,-76.30000305175781,23.67926979064941,-134.06236267089844,-97.52095794677734,-6.5661396980285645,7.054293155670166,2.8858470916748047,-13.93000030517578,0.699999988079071,-79.94000244140625,59.92646408081055,-151.50209045410156,120.63844299316406,7.736271858215332,-5.714264392852783,3.0030996799468994,0.5600000023841858,-9.170000076293944,-63.34999847412109,152.49266052246094,-114.2022476196289,-202.2457275390625
4315,1720095588.543206,9.588382720947266,-0.8710185289382935,2.416837215423584,-9.65999984741211,6.510000228881836,1.8200000524520876,171.5068817138672,-227.20620727539065,165.62962341308594,-3.7831876277923584,-6.568532943725586,3.4936459064483643,-56.4900016784668,-60.900001525878906,92.4000015258789,14.250000953674316,-2.8500001430511475,3.450000047683716,,,,,,,,,,-6.326848983764648,7.025578022003174,2.837989091873169,-16.170000076293945,-3.009999990463257,-80.63999938964844,59.92646408081055,-151.50209045410156,120.63844299316406,7.470659255981445,-5.637691497802734,2.8930258750915527,10.079999923706056,-10.56999969482422,-59.56999969482422,156.0211181640625,-114.23917388916016,-199.47219848632807
4316,1720095588.54294,9.39216423034668,-0.540797233581543,2.476659774780273,-10.5,3.990000009536743,2.309999942779541,171.5463104248047,-225.5979766845703,167.5966796875,-3.9650487899780273,-4.374236106872559,2.677664041519165,-84.0,-60.76000213623047,87.8499984741211,13.200000762939451,-2.25,3.900000095367432,8.391928672790527,5.00835657119751,1.141417145729065,-52.220001220703125,-41.790000915527344,-66.5,24.88885498046875,-139.0802001953125,-100.8017120361328,-6.204810619354248,6.95379114151001,2.663306713104248,-7.909999847412109,-4.199999809265137,-81.2699966430664,59.92646408081055,-151.50209045410156,120.63844299316406,8.2124605178833,-5.070572376251221,2.7422726154327397,14.699999809265137,-20.299999237060547,-55.720001220703125,157.80726623535156,-111.09255981445312,-198.92637634277344
4317,1720095588.543156,9.55009651184082,-0.5264397859573364,2.5101606845855717,-15.190000534057615,2.450000047683716,3.3600001335144043,172.2790985107422,-220.3995056152344,169.4945831298828,-4.309627532958984,-5.910482883453369,2.2014753818511963,-107.66000366210938,-58.93999862670898,82.52999877929688,13.200000762939451,-3.750000238418579,5.100000381469727,8.523538589477539,4.800173759460449,1.5386399030685425,-46.54999923706055,-39.7599983215332,-61.810001373291016,23.73578643798828,-134.05047607421875,-95.83699798583984,-6.097129821777344,6.709714412689209,2.6082699298858643,14.420000076293944,-2.380000114440918,-80.5,59.92646408081055,-151.50209045410156,120.63844299316406,8.549860954284668,-4.864782333374023,2.7733805179595947,15.81999969482422,-25.690000534057617,-53.68999862670898,155.94235229492188,-113.41639709472656,-198.34451293945312
4318,1720095588.5687969,9.581204414367676,-0.9499844908714294,2.703986167907715,-15.68000030517578,0.4200000166893005,3.7100000381469727,171.42779541015625,-222.14329528808597,166.80801391601562,-4.74752950668335,-7.712342739105225,4.089479923248291,-107.66000366210938,-57.400001525878906,71.47000122070312,14.250000953674316,-3.150000095367432,5.850000381469727,8.085636138916016,4.888711452484131,2.038757801055908,-40.7400016784668,-33.11000061035156,-59.9900016784668,25.753870010375977,-137.61329650878906,-98.86524200439452,-6.326848983764648,6.161738395690918,2.8212387561798096,26.530000686645508,1.1200000047683716,-76.30000305175781,59.92646408081055,-151.50209045410156,120.63844299316406,8.152637481689453,-4.984427452087402,3.0605294704437256,17.5,-23.940000534057617,-52.63999938964844,157.92678833007812,-108.9866943359375,-198.4136962890625
4319,1720095588.5432549,9.581204414367676,-0.9667348861694336,2.5340895652771,-10.149999618530272,2.380000114440918,3.289999961853028,168.67530822753906,-220.37844848632807,164.47576904296875,-5.206967830657959,-5.809980869293213,4.072729587554932,-113.95999908447266,-60.20000076293945,59.9900016784668,12.300000190734863,-3.450000047683716,8.700000762939453,7.535267353057861,5.092108249664307,2.167974710464477,-36.540000915527344,-30.239999771118164,-54.38999938964844,21.64872360229492,-132.9414520263672,-99.13107299804688,-6.585283279418945,6.283776760101318,2.431194543838501,23.3799991607666,2.0999999046325684,-71.12000274658203,59.92646408081055,-151.50209045410156,120.63844299316406,8.391928672790527,-4.82649564743042,2.8762755393981934,21.6299991607666,-25.479999542236328,-50.04999923706055,158.38800048828125,-107.7270278930664,-197.35235595703125
4320,1720095588.543084,9.51180934906006,-0.9882710576057434,2.5125534534454346,-9.029999732971191,4.900000095367432,3.150000095367432,171.42308044433594,-222.144287109375,166.6676788330078,-4.92221212387085,-5.443865776062012,3.110780477523804,-129.77999877929688,-66.01000213623047,56.34999847412109,12.600000381469728,-3.900000095367432,9.90000057220459,7.74345064163208,5.520439147949219,1.907147765159607,-35.13999938964844,-31.01000022888184,-49.0,22.06797981262207,-131.41082763671875,-98.16162109375,-6.214382171630859,5.924840450286865,2.249333620071411,16.100000381469727,-4.690000057220459,-65.23999786376953,59.92646408081055,-151.50209045410156,120.63844299316406,8.683863639831543,-4.498667240142822,2.4623024463653564,22.68000030517578,-30.520000457763672,-44.17000198364258,159.0419158935547,-106.2257843017578,-195.548583984375
4321,1720095588.5433538,9.588382720947266,-0.8758043646812439,2.5628044605255127,-10.56999969482422,2.5899999141693115,3.569999933242798,170.50416564941406,-221.46304321289065,166.23385620117188,,,,,,,,,,7.817630767822266,5.762122631072998,1.7444299459457395,-36.68000030517578,-30.030000686645508,-43.88999938964844,23.00574111938477,-132.08810424804688,-97.1664810180664,-5.613762378692627,5.460616111755371,3.3285350799560547,12.670000076293944,-11.130000114440918,-55.29999923706055,59.92646408081055,-151.50209045410156,120.63844299316406,8.406286239624023,-4.702064514160156,2.627413034439087,18.270000457763672,-33.880001068115234,-38.150001525878906,157.0377655029297,-111.21920776367188,-198.38291931152344
4322,1720095588.5688715,,,,,,,,,,-4.513024806976318,-8.451751708984375,2.577162027359009,-123.69000244140624,-61.52999877929688,55.02000045776367,10.950000762939451,-3.750000238418579,15.300000190734863,7.504159927368164,5.575475692749023,2.1201164722442627,-34.29999923706055,-22.399999618530277,-37.869998931884766,21.14302635192871,-132.05099487304688,-98.40909576416016,-5.295505523681641,5.824338436126709,4.213911056518555,22.540000915527344,-13.510000228881836,-48.5099983215332,59.92646408081055,-151.50209045410156,120.63844299316406,8.580968856811523,-4.764279842376709,3.0724940299987797,13.09000015258789,-32.34000015258789,-32.689998626708984,158.04542541503906,-107.92137145996094,-196.40321350097656
4323,1720095588.543428,9.571632385253906,-1.0935590267181396,2.7446656227111816,-11.619999885559082,3.150000095367432,4.269999980926514,170.1765899658203,-220.61387634277344,166.106201171875,-4.850424766540527,-7.860702991485596,3.821474313735962,-116.62000274658205,-50.119998931884766,41.790000915527344,12.15000057220459,-3.450000047683716,15.750000953674316,7.030364036560059,5.544368267059326,2.050722122192383,-27.15999984741211,-19.600000381469727,-30.520000457763672,21.714771270751957,-128.40757751464844,-95.94464874267578,-5.326613426208496,6.664248943328857,3.974620342254639,29.96000099182129,-16.100000381469727,-42.06999969482422,59.92646408081055,-151.50209045410156,120.63844299316406,9.253376007080078,-4.256983280181885,3.254354953765869,9.170000076293944,-28.0,-27.09000015258789,159.69189453125,-108.20500946044922,-196.60470581054688
4324,1720095588.543181,9.507023811340332,-0.9739136099815368,2.625020265579224,-9.380000114440918,4.480000019073486,5.110000133514404,171.714599609375,-225.92112731933597,165.29530334472656,-5.750158309936523,-6.317277431488037,5.08732271194458,-129.36000061035156,-39.060001373291016,38.36000061035156,10.350000381469728,-4.950000286102295,17.700000762939453,7.195474624633789,5.79801607131958,2.1392598152160645,-23.940000534057617,-18.76000022888184,-24.43000030517578,19.26586151123047,-127.7767333984375,-100.0219955444336,-5.467794895172119,5.154324054718018,3.134709596633911,50.61000061035156,-23.239999771118164,-42.42000198364258,59.92646408081055,-151.50209045410156,120.63844299316406,9.246196746826172,-4.058372020721436,3.0389933586120605,5.110000133514404,-25.34000015258789,-21.90999984741211,157.28590393066406,-102.76536560058594,-197.02618408203125
4325,1720095588.54333,9.499845504760742,-0.9140908718109132,2.5747690200805664,-8.329999923706055,5.179999828338623,5.670000076293945,169.14756774902344,-222.03651428222656,165.4403533935547,-5.948769569396973,-7.932490348815918,3.175389051437378,-116.1999969482422,-53.68999862670898,27.71999931335449,9.600000381469728,-5.550000190734863,21.150001525878903,7.451515674591064,6.135416507720947,2.28283429145813,-25.479999542236328,-13.230000495910645,-19.38999938964844,22.428184509277344,-128.012939453125,-97.00096130371094,-5.503688812255859,3.484074115753174,2.735093832015991,91.13999938964844,-26.950000762939453,-42.84000015258789,59.92646408081055,-151.50209045410156,120.63844299316406,9.19355297088623,-4.21869707107544,2.452730894088745,4.829999923706055,-27.15999984741211,-19.46000099182129,155.54139709472656,-101.94279479980467,-197.42942810058597
