timestamp,RU_IMU9_Acc_X,RU_IMU9_Acc_Y,RU_IMU9_Acc_Z,RU_IMU9_Gyro_X,RU_IMU9_Gyro_Y,RU_IMU9_Gyro_Z,RU_IMU9_Magn_X,RU_IMU9_Magn_Y,RU_IMU9_Magn_Z,RF_IMU9_Acc_X,RF_IMU9_Acc_Y,RF_IMU9_Acc_Z,RF_IMU9_Gyro_X,RF_IMU9_Gyro_Y,RF_IMU9_Gyro_Z,RF_IMU9_Magn_X,RF_IMU9_Magn_Y,RF_IMU9_Magn_Z
1726865370.8277378,9.664956092834473,-0.2177546322345733,0.4953319728374481,1.0499999523162842,-4.130000114440918,-0.4900000095367431,59.38053894042969,-8.159259796142578,51.00592803955078,9.83485221862793,-1.366350531578064,0.7729093432426453,-0.699999988079071,-2.1700000762939453,-1.0499999523162842,19.650001525878903,-84.45000457763672,-27.30000114440918
1726865370.8533788,9.72238540649414,-0.27997025847435,0.5360113978385925,1.190000057220459,-4.199999809265137,-0.6299999952316284,56.61435317993164,-6.117510795593262,49.423789978027344,9.813316345214844,-1.2132043838500977,0.7729093432426453,0.7699999809265137,-1.9600000381469729,-1.3300000429153442,20.100000381469727,-84.60000610351562,-27.450000762939453
1726865370.87902,9.71520709991455,-0.3254354894161224,0.5599405169487,2.0299999713897705,-4.480000019073486,-0.699999988079071,57.49941635131836,-7.846236705780029,50.37308883666992,9.81810188293457,-1.0911661386489868,0.7537660598754883,0.699999988079071,-2.0299999713897705,-1.6100000143051147,18.900001525878903,-85.20000457763672,-25.350000381469727
1726865370.904661,9.703242301940918,-0.181861013174057,0.5599405169487,2.309999942779541,-4.550000190734863,-0.5600000023841858,60.951622009277344,-8.939558029174805,52.39912796020508,9.775029182434082,-1.1174880266189575,0.7848738431930542,-0.2800000011920929,-2.309999942779541,-1.680000066757202,19.5,-84.30000305175781,-26.700000762939453
1726865370.9027998,9.68649196624756,-0.2656128108501434,0.648478090763092,1.9600000381469729,-4.199999809265137,-0.4900000095367431,55.305320739746094,-5.920393943786621,47.36471557617188,9.760672569274902,-1.201239824295044,0.8351249098777771,-1.190000057220459,-2.380000114440918,-1.4700000286102295,19.650001525878903,-85.20000457763672,-28.200000762939453
1726865370.9284408,9.734350204467772,-0.27997025847435,0.6054057478904724,2.870000123977661,-4.199999809265137,-0.9800000190734864,59.19255065917969,-8.399836540222168,50.4037971496582,9.8444242477417,-1.2490980625152588,0.765730619430542,-1.2599999904632568,-2.240000009536743,-1.2599999904632568,21.30000114440918,-83.70000457763672,-27.750001907348636
1726865370.954082,9.803744316101074,-0.2273262739181518,0.5647262930870056,4.059999942779541,-4.059999942779541,-1.5399999618530271,57.54697036743164,-7.075653553009033,49.107513427734375,9.79177951812744,-1.275420069694519,0.7418015003204346,-0.9800000190734864,-2.0299999713897705,-1.3300000429153442,21.30000114440918,-84.1500015258789,-25.200000762939453
1726865370.979723,9.693670272827148,-0.1914326548576355,0.5551546812057495,4.480000019073486,-3.920000076293945,-1.5399999618530271,56.7508544921875,-10.127967834472656,48.43158721923828,9.77263641357422,-1.2203831672668457,0.7776951193809509,-0.4900000095367431,-1.9600000381469729,-1.4700000286102295,21.900001525878903,-85.20000457763672,-27.30000114440918
1726865370.9923158,9.68649196624756,-0.1675035655498504,0.5575475692749023,4.269999980926514,-3.7100000381469727,-1.399999976158142,56.7508544921875,-10.127967834472656,48.43158721923828,9.77263641357422,-1.217990159988403,0.7537660598754883,0.0700000002980232,-1.8899999856948853,-1.5399999618530271,22.200000762939453,-83.25,-27.900001525878903
1726865371.0179567,9.693670272827148,-0.1483602970838546,0.5072965025901794,4.059999942779541,-3.289999961853028,-1.2599999904632568,58.460296630859375,-8.798431396484375,50.8987922668457,9.853995323181152,-1.1868823766708374,0.8016242384910583,0.2100000083446502,-1.8200000524520876,-1.6100000143051147,20.400001525878903,-84.75,-27.30000114440918
1726865371.043598,9.724778175354004,-0.1698964685201645,0.6054057478904724,3.7799999713897705,-3.220000028610229,-1.1200000047683716,58.01542663574219,-7.6941657066345215,48.43398666381836,9.82528018951416,-1.1581674814224243,0.7609447836875916,0.3499999940395355,-1.8200000524520876,-1.75,19.650001525878903,-84.1500015258789,-27.000001907348636
1726865371.069239,9.667348861694336,-0.1316099464893341,0.569512128829956,2.799999952316284,-3.289999961853028,-0.9800000190734864,59.52656936645508,-7.647731781005859,51.51618576049805,9.81810188293457,-1.1820966005325315,0.765730619430542,0.4200000166893005,-2.0999999046325684,-1.75,21.30000114440918,-83.70000457763672,-25.650001525878903
1726865371.096427,9.72238540649414,-0.2560411691665649,0.5120823383331299,1.75,-4.619999885559082,-1.3300000429153442,56.38483428955078,-5.807263374328613,49.90088272094727,9.770243644714355,-1.2323477268218994,0.7346227765083313,0.9800000190734864,-2.240000009536743,-1.8200000524520876,21.450000762939453,-84.0,-27.450000762939453
1726865371.122068,9.719992637634276,-0.1914326548576355,0.4402951002120971,1.9600000381469729,-4.550000190734863,-1.6100000143051147,57.33454895019531,-8.361729621887207,49.301513671875,9.846817016601562,-1.1438100337982178,0.8088029623031616,1.399999976158142,-2.1700000762939453,-1.8200000524520876,19.650001525878903,-84.45000457763672,-27.150001525878903
1726865371.1477091,9.73195743560791,-0.1220383122563362,0.5671192407608032,2.450000047683716,-4.199999809265137,-1.6100000143051147,58.83245468139648,-7.277727127075195,50.464935302734375,9.777422904968262,-1.1988469362258911,0.746587336063385,1.1200000047683716,-2.0999999046325684,-1.8899999856948853,21.150001525878903,-84.60000610351562,-26.55000114440918
1726865371.17335,9.698456764221191,-0.12921704351902,0.6652284264564514,1.4700000286102295,-3.849999904632568,-1.3300000429153442,56.6652946472168,-6.666352272033691,48.6252326965332,9.784601211547852,-1.1749178171157837,0.7059078812599182,1.190000057220459,-2.1700000762939453,-1.75,19.80000114440918,-83.70000457763672,-28.05000114440918
1726865371.186802,9.64581298828125,-0.2488624453544616,0.6700142621994019,1.0499999523162842,-3.990000009536743,-1.190000057220459,58.18072509765625,-6.898799896240234,50.67665863037109,9.815709114074709,-1.1438100337982178,0.7322298884391785,1.0499999523162842,-2.309999942779541,-1.6100000143051147,21.30000114440918,-85.6500015258789,-26.850000381469727
1726865371.2124429,9.765458106994627,-0.339792937040329,0.4977248907089233,2.0999999046325684,-4.340000152587891,-1.1200000047683716,56.96963119506836,-11.760613441467283,48.000518798828125,9.887495994567873,-1.0552724599838257,0.7800880670547485,-0.2100000083446502,-1.8200000524520876,-2.0299999713897705,21.450000762939453,-85.95000457763672,-27.30000114440918
1726865371.238084,9.708027839660645,-0.3015064299106598,0.4570454359054565,3.7799999713897705,-3.990000009536743,-0.8400000333786011,59.03621292114258,-9.953889846801758,51.11066436767578,9.815709114074709,-1.098344802856445,0.7561589479446411,-1.2599999904632568,-1.4700000286102295,-2.240000009536743,21.30000114440918,-84.9000015258789,-27.750001907348636
1726865371.263725,9.71520709991455,-0.1148595884442329,0.5862624645233154,4.409999847412109,-3.990000009536743,-0.699999988079071,60.230995178222656,-6.9752116203308105,51.35031127929688,9.703242301940918,-1.2203831672668457,0.765730619430542,-1.8200000524520876,-1.8899999856948853,-1.8899999856948853,20.25,-85.5,-26.850000381469727
1726865371.2168798,9.674527168273926,-0.0598227009177207,0.6365135312080383,3.220000028610229,-3.849999904632568,-0.4200000166893005,58.06766128540039,-7.403388500213623,51.148712158203125,9.775029182434082,-1.3017419576644895,0.825553297996521,-0.9800000190734864,-2.450000047683716,-1.2599999904632568,20.850000381469727,-84.1500015258789,-29.100000381469727
1726865371.2425208,9.741528511047363,-0.1220383122563362,0.5934411883354187,1.2599999904632568,-4.199999809265137,-0.2100000083446502,56.69947814941406,-9.858999252319336,48.05905151367188,9.868352890014648,-1.2132043838500977,0.7920525670051575,0.0700000002980232,-2.380000114440918,-1.190000057220459,20.25,-84.0,-27.000001907348636
1726865371.268162,9.691277503967283,-0.3134709596633911,0.5503688454627991,0.5600000023841858,-4.96999979019165,-0.7699999809265137,57.99480819702149,-9.779216766357422,50.86823272705078,9.832459449768066,-1.263455510139465,0.7250511646270752,0.9100000262260436,-1.8899999856948853,-1.680000066757202,20.100000381469727,-84.45000457763672,-26.400001525878903
1726865371.293803,9.696063995361328,-0.3374000489711761,0.5742979645729065,1.9600000381469729,-4.619999885559082,-1.190000057220459,58.64489364624024,-7.238430500030518,51.03390502929688,9.81810188293457,-1.1605603694915771,0.6628355383872986,1.2599999904632568,-1.75,-1.8899999856948853,21.450000762939453,-84.45000457763672,-25.80000114440918
1726865371.365625,9.708027839660645,-0.1363957673311233,0.5982270240783691,3.430000066757202,-4.409999847412109,-0.9800000190734864,59.35917282104492,-6.284054279327393,52.31978225708008,9.775029182434082,-1.1629533767700195,0.7441943883895874,0.8400000333786011,-2.0999999046325684,-1.6100000143051147,18.900001525878903,-83.25,-26.400001525878903
1726865371.391266,9.710420608520508,-0.0957163274288177,0.5958341360092163,3.430000066757202,-4.269999980926514,-0.9100000262260436,58.15585708618164,-8.224172592163086,50.30169677734375,9.770243644714355,-1.131845474243164,0.806410014629364,0.2100000083446502,-2.309999942779541,-1.2599999904632568,20.850000381469727,-84.0,-25.200000762939453
1726865371.416907,9.724778175354004,-0.1411815732717514,0.5766908526420593,2.799999952316284,-4.619999885559082,-0.6299999952316284,57.64030838012695,-7.615573406219482,49.57191848754883,9.803744316101074,-1.1366313695907593,0.8183745741844177,-0.4900000095367431,-2.0299999713897705,-1.5399999618530271,20.25,-84.30000305175781,-27.600000381469727
1726865371.442548,9.710420608520508,-0.2321120798587799,0.4881532490253448,2.5899999141693115,-4.760000228881836,-0.8400000333786011,59.188270568847656,-8.120955467224121,51.434566497802734,9.777422904968262,-1.2155972719192505,0.7489802241325378,-0.0700000002980232,-1.8200000524520876,-2.1700000762939453,20.55000114440918,-84.45000457763672,-27.000001907348636
1726865371.381846,9.719992637634276,-0.0885375961661338,0.5240468978881836,2.799999952316284,-4.409999847412109,-0.4900000095367431,57.17185592651367,-6.997060775756836,50.24544143676758,9.751100540161133,-1.2562767267227173,0.7705163955688477,0.9100000262260436,-1.8899999856948853,-1.8899999856948853,20.100000381469727,-84.45000457763672,-25.950000762939453
1726865371.407487,9.674527168273926,-0.1196454018354415,0.6317277550697327,1.8899999856948853,-4.059999942779541,-0.4900000095367431,58.10152053833008,-6.355906486511231,50.63323974609375,9.830066680908203,-1.201239824295044,0.7130866050720215,1.6100000143051147,-2.309999942779541,-1.399999976158142,21.150001525878903,-84.30000305175781,-25.80000114440918
1726865371.433128,9.6697416305542,-0.2321120798587799,0.5360113978385925,1.8200000524520876,-4.829999923706055,-0.4200000166893005,58.882080078125,-9.146984100341797,49.99306106567383,9.822887420654297,-1.1174880266189575,0.806410014629364,1.6100000143051147,-2.240000009536743,-1.3300000429153442,21.150001525878903,-82.80000305175781,-28.200000762939453
1726865371.458769,9.746315002441406,-0.2010042816400528,0.5455830693244934,2.240000009536743,-4.690000057220459,-0.5600000023841858,56.8288459777832,-7.471274852752685,50.02349090576172,9.870745658874512,-1.112702250480652,0.7992312908172607,1.2599999904632568,-1.9600000381469729,-1.6100000143051147,21.150001525878903,-85.20000457763672,-26.850000381469727
1726865371.456936,9.71520709991455,-0.1411815732717514,0.5360113978385925,2.6600000858306885,-4.900000095367432,-0.6299999952316284,58.29290008544922,-7.434753894805908,51.70238876342773,9.798958778381348,-1.131845474243164,0.7489802241325378,0.7699999809265137,-2.0299999713897705,-1.6100000143051147,20.55000114440918,-84.30000305175781,-27.600000381469727
1726865371.4825768,9.655384063720703,-0.0598227009177207,0.5647262930870056,1.8200000524520876,-4.480000019073486,-0.4900000095367431,56.7060432434082,-3.737717390060425,50.26559448242188,9.856388092041016,-1.1294525861740112,0.7418015003204346,0.5600000023841858,-2.1700000762939453,-1.2599999904632568,20.25,-84.0,-27.450000762939453
1726865371.508218,9.743921279907228,-0.2321120798587799,0.5623334050178528,0.9100000262260436,-4.480000019073486,-0.2800000011920929,55.18326950073242,-6.147092342376709,48.72720336914063,9.82528018951416,-1.170132040977478,0.7872667908668518,0.4200000166893005,-2.380000114440918,-1.190000057220459,19.350000381469727,-83.4000015258789,-28.200000762939453
1726865371.533859,9.71520709991455,-0.1962184607982635,0.588655412197113,0.9100000262260436,-4.269999980926514,-0.0700000002980232,56.26795196533203,-5.272299766540527,48.734825134277344,9.858781814575195,-1.1581674814224243,0.7729093432426453,0.0700000002980232,-1.9600000381469729,-1.3300000429153442,21.150001525878903,-84.30000305175781,-26.700000762939453
1726865371.531652,9.74870777130127,-0.2680056989192962,0.5072965025901794,1.399999976158142,-4.480000019073486,-0.4900000095367431,59.31974411010742,-7.892273902893066,50.35273361206055,9.777422904968262,-1.1462029218673706,0.6939433217048645,-0.4900000095367431,-1.8200000524520876,-1.5399999618530271,19.650001525878903,-85.05000305175781,-27.750001907348636
1726865371.557293,9.676919937133787,-0.2416837215423584,0.4809745252132416,2.5199999809265137,-4.829999923706055,-0.8400000333786011,56.34626770019531,-6.85573673248291,50.276023864746094,9.75588607788086,-1.2036327123641968,0.7729093432426453,-0.4900000095367431,-2.1700000762939453,-1.2599999904632568,20.25,-84.1500015258789,-26.850000381469727
1726865371.582934,9.746315002441406,-0.184253916144371,0.5025107264518738,3.009999990463257,-4.619999885559082,-0.7699999809265137,56.34626770019531,-6.85573673248291,50.276023864746094,9.798958778381348,-1.1557745933532717,0.7848738431930542,-0.0700000002980232,-2.309999942779541,-0.8400000333786011,18.900001525878903,-84.45000457763672,-27.750001907348636
1726865371.608575,9.684099197387695,-0.1244312226772308,0.5575475692749023,2.870000123977661,-4.480000019073486,-0.699999988079071,59.66318130493164,-7.138186931610107,51.74578094482422,9.846817016601562,-1.1557745933532717,0.7753022313117981,0.1400000005960464,-2.1700000762939453,-0.9100000262260436,21.150001525878903,-84.30000305175781,-25.950000762939453
1726865371.6664448,9.696063995361328,-0.1675035655498504,0.5647262930870056,2.450000047683716,-4.619999885559082,-0.5600000023841858,58.94419860839844,-8.093554496765137,50.3195686340332,9.820494651794434,-1.1557745933532717,0.7489802241325378,0.2800000011920929,-2.0999999046325684,-1.4700000286102295,20.400001525878903,-83.70000457763672,-26.55000114440918
1726865371.6920855,9.727170944213867,-0.1579319387674331,0.588655412197113,1.9600000381469729,-4.900000095367432,-0.7699999809265137,55.808380126953125,-9.45168113708496,47.29611206054688,9.798958778381348,-1.1677391529083252,0.7250511646270752,0.1400000005960464,-2.1700000762939453,-1.6100000143051147,20.55000114440918,-84.30000305175781,-27.30000114440918
1726865371.717727,9.743921279907228,-0.1363957673311233,0.5551546812057495,1.75,-4.480000019073486,-0.8400000333786011,60.66263198852539,-7.0419087409973145,51.89633941650391,9.803744316101074,-1.1988469362258911,0.679585874080658,0.4200000166893005,-2.0999999046325684,-1.6100000143051147,20.55000114440918,-84.75,-27.000001907348636
1726865371.743368,9.68649196624756,-0.1387886703014373,0.5360113978385925,1.75,-4.409999847412109,-0.8400000333786011,56.52954864501953,-6.616151332855225,50.737823486328125,9.765458106994627,-1.170132040977478,0.7753022313117981,0.1400000005960464,-2.0299999713897705,-1.4700000286102295,20.400001525878903,-85.80000305175781,-26.850000381469727
1726865371.6970348,9.703242301940918,-0.1172524988651275,0.5072965025901794,0.9800000190734864,-4.269999980926514,-0.6299999952316284,60.02799224853516,-8.259305000305176,51.82497024536133,9.767850875854492,-1.1533817052841189,0.7896596789360046,0.2100000083446502,-2.240000009536743,-1.3300000429153442,20.55000114440918,-84.30000305175781,-26.55000114440918
1726865371.7226758,9.724778175354004,-0.2392908036708831,0.4570454359054565,0.9100000262260436,-4.409999847412109,-0.7699999809265137,57.72465133666992,-7.877602577209473,50.92676544189453,9.839637756347656,-1.1198810338974,0.7729093432426453,0.1400000005960464,-2.1700000762939453,-1.3300000429153442,20.850000381469727,-84.30000305175781,-27.000001907348636
1726865371.748317,9.775029182434082,-0.2416837215423584,0.4594383537769317,2.0299999713897705,-4.550000190734863,-0.8400000333786011,57.69168472290039,-7.884541988372803,49.944454193115234,9.82528018951416,-1.100737690925598,0.6987291574478149,-0.2100000083446502,-1.9600000381469729,-1.5399999618530271,20.850000381469727,-83.4000015258789,-26.850000381469727
1726865371.773958,9.676919937133787,-0.1722893863916397,0.5575475692749023,2.309999942779541,-4.480000019073486,-0.5600000023841858,56.9033432006836,-8.01516056060791,49.92658233642578,9.806137084960938,-1.0863802433013916,0.6652284264564514,-1.1200000047683716,-2.240000009536743,-1.399999976158142,21.150001525878903,-84.30000305175781,-27.30000114440918
1726865371.771906,9.657776832580566,-0.1746822893619537,0.5072965025901794,1.680000066757202,-4.269999980926514,-0.4200000166893005,56.57667541503906,-6.125441074371338,48.3011474609375,9.846817016601562,-1.1940611600875854,0.7489802241325378,-1.75,-2.240000009536743,-1.1200000047683716,20.850000381469727,-83.55000305175781,-27.000001907348636
1726865371.7975469,9.712814331054688,-0.2656128108501434,0.5312256217002869,1.5399999618530271,-4.550000190734863,-0.4900000095367431,56.63954162597656,-9.032267570495604,49.748046875,9.846817016601562,-1.1892752647399902,0.8040171265602112,-1.0499999523162842,-2.0999999046325684,-1.3300000429153442,20.55000114440918,-84.75,-26.55000114440918
1726865371.823188,9.688884735107422,-0.2392908036708831,0.5072965025901794,2.0999999046325684,-4.829999923706055,-0.3499999940395355,56.91836166381836,-6.971643447875977,48.84978866577149,9.801351547241213,-1.237133502960205,0.7729093432426453,-0.4900000095367431,-2.0999999046325684,-1.5399999618530271,21.75,-84.9000015258789,-28.200000762939453
1726865371.848829,9.708027839660645,-0.1220383122563362,0.5144752264022827,2.870000123977661,-4.480000019073486,-0.3499999940395355,58.314697265625,-9.030086517333984,51.55963134765625,9.736742973327637,-1.2203831672668457,0.7250511646270752,-0.0700000002980232,-2.0999999046325684,-1.399999976158142,21.600000381469727,-83.4000015258789,-25.650001525878903
1726865371.847262,9.758278846740724,-0.0622156113386154,0.4953319728374481,2.1700000762939453,-4.340000152587891,-0.3499999940395355,59.77064895629883,-7.675132274627685,52.63117980957031,9.770243644714355,-1.1629533767700195,0.727444052696228,-0.2800000011920929,-2.240000009536743,-1.0499999523162842,21.450000762939453,-84.9000015258789,-27.750001907348636
1726865371.8729029,9.7391357421875,-0.1220383122563362,0.49054616689682,1.1200000047683716,-4.199999809265137,-0.2100000083446502,57.21502304077149,-10.467598915100098,48.7888298034668,9.79417324066162,-1.2610626220703125,0.746587336063385,-0.2800000011920929,-2.0999999046325684,-0.9800000190734864,21.600000381469727,-84.30000305175781,-26.700000762939453
1726865371.898544,9.674527168273926,-0.2632198929786682,0.5120823383331299,0.699999988079071,-4.550000190734863,-0.4200000166893005,57.54401397705078,-5.476356029510498,49.81159210205078,9.822887420654297,-1.1605603694915771,0.7202653288841248,0.1400000005960464,-2.1700000762939453,-1.190000057220459,21.600000381469727,-84.0,-28.350000381469727
1726865371.924185,9.693670272827148,-0.2823631465435028,0.5168681740760803,1.3300000429153442,-4.340000152587891,-0.4200000166893005,59.66275024414063,-7.418059825897217,50.574684143066406,9.820494651794434,-1.141417145729065,0.6987291574478149,-0.699999988079071,-2.1700000762939453,-1.0499999523162842,20.25,-85.05000305175781,-27.450000762939453
1726865371.981818,9.676919937133787,-0.1794681102037429,0.5192610621452332,2.0999999046325684,-3.990000009536743,-0.3499999940395355,58.35283660888672,-8.261486053466797,50.01339340209961,9.858781814575195,-1.1581674814224243,0.7011220455169678,-1.399999976158142,-2.0299999713897705,-0.8400000333786011,19.80000114440918,-86.25,-26.400001525878903
1726865372.007459,9.719992637634276,-0.1938255578279495,0.5192610621452332,1.399999976158142,-3.849999904632568,-0.3499999940395355,57.91178131103516,-8.196771621704102,49.18670272827149,9.796566009521484,-1.1916682720184326,0.8016242384910583,-1.680000066757202,-2.0999999046325684,-0.9100000262260436,21.0,-84.60000610351562,-25.650001525878903
1726865372.0331,9.724778175354004,-0.3062922358512878,0.4953319728374481,1.399999976158142,-4.340000152587891,-0.3499999940395355,57.18773651123047,-5.393797874450684,51.510841369628906,9.753493309020996,-1.1605603694915771,0.7561589479446411,-2.0299999713897705,-1.8899999856948853,-1.0499999523162842,20.850000381469727,-83.55000305175781,-26.100000381469727
1726865372.058741,9.691277503967283,-0.1507532149553299,0.4929390549659729,3.5,-4.199999809265137,-0.4200000166893005,57.743953704833984,-7.112967014312744,48.8192024230957,9.698456764221191,-1.208418607711792,0.6963362693786621,-2.450000047683716,-2.0299999713897705,-0.8400000333786011,19.950000762939453,-84.45000457763672,-27.750001907348636
1726865372.0113368,9.734350204467772,-0.1746822893619537,0.569512128829956,2.940000057220459,-3.990000009536743,-0.4200000166893005,57.112701416015625,-9.649788856506348,49.2148551940918,9.79177951812744,-1.32806396484375,0.6532639265060425,-2.5199999809265137,-2.0299999713897705,-0.6299999952316284,22.200000762939453,-83.25,-26.700000762939453
1726865372.0369778,9.751100540161133,-0.2201475501060485,0.5336185097694397,2.380000114440918,-4.059999942779541,-0.6299999952316284,58.89664077758789,-8.864137649536133,51.58515167236328,9.837244987487791,-1.2227760553359983,0.727444052696228,-1.6100000143051147,-2.0999999046325684,-0.5600000023841858,20.850000381469727,-84.30000305175781,-27.750001907348636
1726865372.062619,9.782208442687988,-0.2680056989192962,0.4450809061527252,2.6600000858306885,-4.480000019073486,-0.6299999952316284,56.293575286865234,-7.907183647155762,50.23017501831055,9.758278846740724,-1.2132043838500977,0.7729093432426453,-1.0499999523162842,-1.9600000381469729,-1.0499999523162842,20.700000762939453,-84.0,-27.30000114440918
1726865372.08826,9.650598526000977,-0.2010042816400528,0.5025107264518738,2.940000057220459,-4.059999942779541,-0.6299999952316284,58.58541870117188,-5.651028633117676,50.05402374267578,9.801351547241213,-1.1940611600875854,0.7848738431930542,-0.5600000023841858,-2.0299999713897705,-1.3300000429153442,21.600000381469727,-83.70000457763672,-26.400001525878903
1726865372.0871978,9.66256332397461,-0.0885375961661338,0.4977248907089233,2.1700000762939453,-3.920000076293945,-0.699999988079071,59.24864196777344,-8.667813301086426,50.91666412353516,9.822887420654297,-1.208418607711792,0.6771929860115051,-0.699999988079071,-1.9600000381469729,-1.0499999523162842,20.400001525878903,-84.30000305175781,-27.450000762939453
1726865372.1128387,9.73195743560791,-0.2201475501060485,0.569512128829956,1.5399999618530271,-3.5,-0.3499999940395355,57.85305404663086,-10.569625854492188,49.32720947265625,9.832459449768066,-1.1366313695907593,0.7059078812599182,-0.9100000262260436,-1.9600000381469729,-0.699999988079071,20.55000114440918,-85.20000457763672,-27.450000762939453
1726865372.13848,9.81092357635498,-0.2727915346622467,0.4809745252132416,1.6100000143051147,-4.130000114440918,-0.1400000005960464,56.84725570678711,-7.747182846069336,49.41371536254883,9.784601211547852,-1.201239824295044,0.7370156645774841,-1.8200000524520876,-2.0299999713897705,-1.1200000047683716,20.55000114440918,-83.4000015258789,-25.350000381469727
1726865372.164121,9.736742973327637,-0.2727915346622467,0.4737958014011383,2.309999942779541,-4.480000019073486,-0.1400000005960464,56.437530517578125,-4.755815982818604,49.94672775268555,9.798958778381348,-1.2419192790985107,0.8135887384414673,-1.75,-2.0299999713897705,-1.2599999904632568,20.400001525878903,-84.45000457763672,-27.30000114440918
1726865372.1622348,9.82528018951416,-0.2488624453544616,0.5144752264022827,2.6600000858306885,-4.340000152587891,-0.1400000005960464,56.45636749267578,-4.751850605010986,50.50804901123047,9.81092357635498,-1.277812957763672,0.7178724408149719,-1.680000066757202,-1.8200000524520876,-0.8400000333786011,21.150001525878903,-84.75,-27.450000762939453
1726865372.1878755,9.679313659667969,-0.1986113786697387,0.5575475692749023,3.0799999237060547,-3.920000076293945,-0.3499999940395355,59.4995231628418,-10.853266716003418,49.12571716308594,9.798958778381348,-1.2945632934570312,0.6843717098236084,-1.190000057220459,-1.9600000381469729,-0.699999988079071,20.55000114440918,-83.70000457763672,-27.30000114440918
1726865372.213517,9.684099197387695,-0.2416837215423584,0.5431901216506958,2.870000123977661,-4.199999809265137,-0.4200000166893005,58.93092727661133,-7.536781787872314,52.24077224731445,9.798958778381348,-1.277812957763672,0.7298369407653809,-0.7699999809265137,-1.9600000381469729,-0.8400000333786011,22.05000114440918,-83.70000457763672,-26.400001525878903
1726865372.239158,9.73195743560791,-0.2680056989192962,0.44268798828125,3.220000028610229,-4.409999847412109,-0.3499999940395355,59.31118774414063,-7.334510326385498,52.41426467895508,9.786993980407717,-1.2323477268218994,0.7681235074996948,-0.699999988079071,-1.8200000524520876,-1.0499999523162842,20.700000762939453,-84.9000015258789,-27.600000381469727
1726865372.2969358,9.73195743560791,-0.2273262739181518,0.5288326740264893,3.990000009536743,-4.130000114440918,-0.2800000011920929,59.68497848510742,-8.733519554138184,51.603023529052734,9.801351547241213,-1.217990159988403,0.7059078812599182,-0.699999988079071,-1.6100000143051147,-1.1200000047683716,20.850000381469727,-84.45000457763672,-27.600000381469727
1726865372.3225768,9.719992637634276,-0.1411815732717514,0.49054616689682,3.569999933242798,-3.7799999713897705,-0.3499999940395355,55.68939971923828,-6.757674217224121,49.17632293701172,9.765458106994627,-1.277812957763672,0.7418015003204346,0.0700000002980232,-1.9600000381469729,-1.0499999523162842,20.100000381469727,-83.70000457763672,-27.000001907348636
1726865372.345121,9.700849533081056,-0.1340028494596481,0.5288326740264893,2.6600000858306885,-3.640000104904175,-0.4200000166893005,58.075439453125,-4.481692314147949,51.806766510009766,9.746315002441406,-1.2730270624160769,0.765730619430542,0.7699999809265137,-2.0999999046325684,-1.190000057220459,20.400001525878903,-83.85000610351562,-26.250001907348636
1726865372.370762,9.734350204467772,-0.2823631465435028,0.569512128829956,2.1700000762939453,-4.409999847412109,-0.1400000005960464,56.08849334716797,-6.551437377929688,49.91113662719727,9.81092357635498,-1.2275618314743042,0.7729093432426453,1.3300000429153442,-1.9600000381469729,-1.3300000429153442,21.450000762939453,-84.45000457763672,-27.600000381469727
1726865372.3269088,9.698456764221191,-0.3062922358512878,0.5168681740760803,2.450000047683716,-4.690000057220459,-0.3499999940395355,55.89108657836914,-6.793996334075928,49.0283432006836,9.8085298538208,-1.1916682720184326,0.679585874080658,1.190000057220459,-1.680000066757202,-1.2599999904632568,21.150001525878903,-82.5,-26.100000381469727
1726865372.3525498,9.693670272827148,-0.2201475501060485,0.5072965025901794,3.5,-4.130000114440918,-0.6299999952316284,58.48384475708008,-8.793475151062012,51.60044097900391,9.815709114074709,-1.2251689434051514,0.6963362693786621,0.8400000333786011,-1.8200000524520876,-1.1200000047683716,19.650001525878903,-83.85000610351562,-27.750001907348636
1726865372.378191,9.691277503967283,-0.1962184607982635,0.569512128829956,3.3600001335144043,-3.920000076293945,-0.4900000095367431,57.0433464050293,-8.825039863586426,50.623191833496094,9.846817016601562,-1.208418607711792,0.7154794931411743,0.5600000023841858,-2.0299999713897705,-1.0499999523162842,20.700000762939453,-84.30000305175781,-27.000001907348636
1726865372.403832,9.667348861694336,-0.260826975107193,0.5910483002662659,3.220000028610229,-4.340000152587891,-0.699999988079071,56.62377166748047,-6.115528106689453,49.70444869995117,9.822887420654297,-1.263455510139465,0.7130866050720215,0.8400000333786011,-2.0299999713897705,-1.3300000429153442,21.150001525878903,-86.25,-27.000001907348636
1726865372.4018438,9.717599868774414,-0.1675035655498504,0.4474738240242004,3.569999933242798,-4.690000057220459,-0.9100000262260436,59.09668731689453,-5.980746269226074,51.8145637512207,9.782208442687988,-1.2658483982086182,0.758551836013794,1.6100000143051147,-1.680000066757202,-1.4700000286102295,20.100000381469727,-84.45000457763672,-26.850000381469727
1726865372.4274848,9.641026496887209,-0.1363957673311233,0.4737958014011383,3.3600001335144043,-3.920000076293945,-0.9800000190734864,59.39292144775391,-9.756574630737305,50.5825080871582,9.77263641357422,-1.1892752647399902,0.6891575455665588,1.6100000143051147,-1.5399999618530271,-1.680000066757202,22.05000114440918,-83.85000610351562,-27.600000381469727
1726865372.453126,9.760672569274902,-0.1938255578279495,0.5120823383331299,2.5899999141693115,-3.7799999713897705,-0.6299999952316284,60.75717544555664,-10.781414031982422,50.812259674072266,9.753493309020996,-1.2132043838500977,0.746587336063385,1.5399999618530271,-1.8200000524520876,-1.5399999618530271,19.80000114440918,-83.85000610351562,-26.700000762939453
1726865372.478767,9.73195743560791,-0.2656128108501434,0.4977248907089233,2.6600000858306885,-3.7100000381469727,-0.699999988079071,58.25432968139648,-8.483227729797363,52.07753372192383,9.79177951812744,-1.1438100337982178,0.7418015003204346,1.190000057220459,-1.8899999856948853,-1.6100000143051147,19.5,-84.0,-27.900001525878903
1726865372.477639,9.815709114074709,-0.205790102481842,0.466617077589035,3.0799999237060547,-4.130000114440918,-0.4200000166893005,58.79684829711914,-9.925497055053713,50.13600158691406,9.765458106994627,-1.177310824394226,0.7776951193809509,0.5600000023841858,-2.1700000762939453,-1.3300000429153442,22.05000114440918,-84.9000015258789,-27.600000381469727
1726865372.50328,9.6697416305542,-0.1579319387674331,0.49054616689682,2.6600000858306885,-3.990000009536743,-0.4900000095367431,56.9132194519043,-7.252507209777832,47.538360595703125,9.856388092041016,-1.179703712463379,0.7226582169532776,0.0,-2.0999999046325684,-1.2599999904632568,20.850000381469727,-83.25,-27.450000762939453
1726865372.5289211,9.602740287780762,-0.1866468340158462,0.569512128829956,2.240000009536743,-3.7100000381469727,-0.4900000095367431,58.966426849365234,-9.409013748168944,51.34790802001953,9.870745658874512,-1.2036327123641968,0.7226582169532776,-0.4900000095367431,-1.680000066757202,-1.6100000143051147,19.950000762939453,-84.45000457763672,-26.55000114440918
1726865372.554562,9.717599868774414,-0.2392908036708831,0.569512128829956,1.8899999856948853,-3.5,-0.3499999940395355,59.07313919067383,-5.985702991485596,51.1129150390625,9.832459449768066,-1.277812957763672,0.7322298884391785,-0.4900000095367431,-1.5399999618530271,-1.680000066757202,20.100000381469727,-84.30000305175781,-27.450000762939453
1726865372.6121428,9.71520709991455,-0.1244312226772308,0.5599405169487,0.9100000262260436,-4.409999847412109,0.2800000011920929,59.61990737915039,-8.187651634216309,51.9805908203125,9.736742973327637,-1.2323477268218994,0.8159816861152649,0.0,-1.680000066757202,-1.5399999618530271,21.900001525878903,-84.45000457763672,-26.55000114440918
1726865372.6377838,9.74870777130127,-0.1962184607982635,0.4379021823406219,-0.0700000002980232,-4.059999942779541,0.0700000002980232,58.63076400756836,-7.2414045333862305,50.6129150390625,9.72238540649414,-1.217990159988403,0.7394086122512817,-0.1400000005960464,-1.75,-1.2599999904632568,21.0,-84.45000457763672,-25.80000114440918
1726865372.663425,9.74870777130127,-0.2392908036708831,0.4115802049636841,-0.4200000166893005,-3.990000009536743,-0.1400000005960464,56.24351501464844,-6.317800045013428,49.53095626831055,9.8085298538208,-1.246705174446106,0.7154794931411743,-0.2800000011920929,-1.9600000381469729,-0.9800000190734864,21.0,-85.5,-27.150001525878903
1726865372.689066,9.676919937133787,-0.2895418703556061,0.4929390549659729,-0.1400000005960464,-4.829999923706055,-0.2800000011920929,56.13780212402344,-4.180565357208252,49.489967346191406,9.789386749267578,-1.1342384815216064,0.7250511646270752,-0.3499999940395355,-2.1700000762939453,-0.8400000333786011,21.30000114440918,-84.45000457763672,-26.400001525878903
1726865372.6419518,9.684099197387695,-0.260826975107193,0.5168681740760803,0.3499999940395355,-4.96999979019165,-0.2800000011920929,58.31733703613281,-6.389254570007324,50.90625762939453,9.784601211547852,-1.1366313695907593,0.7753022313117981,-1.3300000429153442,-2.0999999046325684,-0.4900000095367431,22.650001525878903,-85.35000610351562,-27.150001525878903
1726865372.6675928,9.712814331054688,-0.3038993179798126,0.5120823383331299,0.5600000023841858,-4.409999847412109,-0.2100000083446502,58.0873908996582,-6.358880519866943,50.212249755859375,9.83485221862793,-1.1198810338974,0.648478090763092,-2.940000057220459,-1.8899999856948853,-0.5600000023841858,20.100000381469727,-83.55000305175781,-27.000001907348636
1726865372.693234,9.72238540649414,-0.3230426013469696,0.5025107264518738,1.3300000429153442,-4.059999942779541,-0.3499999940395355,57.34396743774414,-8.359746932983398,49.58217239379883,9.81092357635498,-1.2730270624160769,0.7011220455169678,-3.849999904632568,-1.680000066757202,-0.9100000262260436,21.0,-84.9000015258789,-26.55000114440918
1726865372.718875,9.736742973327637,-0.2943277060985565,0.5264397859573364,2.309999942779541,-3.7799999713897705,-0.3499999940395355,56.93851852416992,-5.647261619567871,49.08442306518555,9.770243644714355,-1.3543859720230105,0.7633376717567444,-3.3600001335144043,-1.75,-1.1200000047683716,22.05000114440918,-84.9000015258789,-28.05000114440918
1726865372.7169058,9.760672569274902,-0.3062922358512878,0.5360113978385925,3.009999990463257,-4.059999942779541,-0.3499999940395355,60.08143997192383,-11.168113708496094,52.9912109375,9.782208442687988,-1.3400285243988037,0.7800880670547485,-1.8200000524520876,-1.8899999856948853,-0.9100000262260436,19.80000114440918,-85.6500015258789,-26.400001525878903
1726865372.7425468,9.73195743560791,-0.4259376525878906,0.5288326740264893,4.199999809265137,-4.409999847412109,-0.9100000262260436,58.46718978881836,-6.91727876663208,53.05462646484375,9.82767391204834,-1.299349069595337,0.7370156645774841,-0.9100000262260436,-1.8899999856948853,-0.9100000262260436,20.700000762939453,-85.20000457763672,-27.000001907348636
1726865372.768188,9.75588607788086,-0.0981092303991317,0.3996156454086303,4.760000228881836,-4.480000019073486,-1.0499999523162842,58.424800872802734,-6.9262003898620605,51.79165649414063,9.801351547241213,-1.39745831489563,0.7848738431930542,0.2100000083446502,-1.8899999856948853,-1.1200000047683716,20.400001525878903,-85.95000457763672,-26.850000381469727
1726865372.793829,9.64581298828125,-0.1268241256475448,0.5120823383331299,3.920000076293945,-4.059999942779541,-0.9800000190734864,55.19915008544922,-4.543829441070557,49.99260330200195,9.803744316101074,-1.263455510139465,0.806410014629364,1.399999976158142,-1.9600000381469729,-1.3300000429153442,20.55000114440918,-84.0,-25.350000381469727
1726865372.806757,9.72238540649414,-0.1794681102037429,0.5479759573936462,2.1700000762939453,-3.849999904632568,-0.9800000190734864,57.896759033203125,-9.240288734436035,50.26349639892578,9.846817016601562,-1.246705174446106,0.727444052696228,2.240000009536743,-2.0999999046325684,-1.680000066757202,20.55000114440918,-84.45000457763672,-26.400001525878903
1726865372.832398,9.724778175354004,-0.3302213251590729,0.5527617931365967,2.0999999046325684,-4.199999809265137,-1.1200000047683716,59.15955352783203,-8.8875732421875,53.2614631652832,9.8085298538208,-1.1438100337982178,0.6293348073959351,2.0299999713897705,-1.8200000524520876,-1.9600000381469729,20.700000762939453,-83.4000015258789,-26.700000762939453
1726865372.8580391,9.736742973327637,-0.2129688262939453,0.5120823383331299,3.3600001335144043,-3.920000076293945,-1.1200000047683716,55.951881408691406,-7.06098222732544,49.68154144287109,9.717599868774414,-1.179703712463379,0.6963362693786621,1.399999976158142,-1.8899999856948853,-1.8899999856948853,20.25,-85.5,-27.600000381469727
1726865372.88368,9.741528511047363,-0.1124666780233383,0.5120823383331299,2.940000057220459,-3.640000104904175,-0.9800000190734864,58.0582389831543,-7.405371189117432,50.8680534362793,9.760672569274902,-1.201239824295044,0.806410014629364,0.5600000023841858,-2.0999999046325684,-1.6100000143051147,21.450000762939453,-84.60000610351562,-26.250001907348636
1726865372.881815,9.693670272827148,-0.1627177447080612,0.5479759573936462,1.6100000143051147,-3.5,-0.8400000333786011,56.95943069458008,-8.283137321472168,50.43944549560547,9.882710456848145,-1.1868823766708374,0.7226582169532776,-0.0700000002980232,-1.8200000524520876,-1.680000066757202,20.100000381469727,-83.25,-26.400001525878903
1726865372.907456,9.72238540649414,-0.3062922358512878,0.5790837407112122,1.2599999904632568,-3.569999933242798,-0.5600000023841858,57.30672073364258,-8.087803840637207,49.6306266784668,9.849209785461426,-1.148595929145813,0.7154794931411743,-0.7699999809265137,-1.75,-1.680000066757202,18.75,-84.1500015258789,-27.30000114440918
1726865372.9330971,9.696063995361328,-0.3445787727832794,0.4331163763999939,2.5899999141693115,-3.920000076293945,-0.8400000333786011,57.23222351074219,-7.543920040130615,49.7275390625,9.806137084960938,-1.2514909505844116,0.7776951193809509,-1.190000057220459,-1.75,-1.6100000143051147,21.0,-84.75,-27.450000762939453
1726865372.958738,9.6697416305542,-0.1459673941135406,0.49054616689682,3.3600001335144043,-3.7799999713897705,-0.699999988079071,56.181400299072266,-7.371229648590088,49.20444869995117,9.79177951812744,-1.32806396484375,0.8111958503723145,-1.0499999523162842,-1.8899999856948853,-1.2599999904632568,21.450000762939453,-84.9000015258789,-26.55000114440918
1726865372.9568348,9.648205757141112,-0.1603248417377472,0.521653950214386,2.6600000858306885,-3.569999933242798,-0.4900000095367431,57.73834991455078,-8.154500961303711,50.17665863037109,9.82767391204834,-1.2490980625152588,0.7800880670547485,-0.6299999952316284,-1.680000066757202,-1.2599999904632568,20.25,-83.55000305175781,-27.450000762939453
1726865372.9824758,9.7391357421875,-0.2177546322345733,0.5072965025901794,2.6600000858306885,-3.849999904632568,-0.6299999952316284,56.55694580078125,-7.169949531555176,49.23761367797852,9.775029182434082,-1.318492412567139,0.7202653288841248,0.0700000002980232,-1.5399999618530271,-1.6100000143051147,20.400001525878903,-84.9000015258789,-27.450000762939453
1726865373.008117,9.708027839660645,-0.2680056989192962,0.5025107264518738,3.009999990463257,-3.7799999713897705,-1.0499999523162842,60.26692581176758,-8.567569732666016,51.6285400390625,9.73195743560791,-1.2060257196426392,0.6939433217048645,0.6299999952316284,-1.3300000429153442,-1.680000066757202,20.55000114440918,-85.80000305175781,-27.900001525878903
1726865373.033758,9.681706428527832,-0.1651106625795364,0.5384043455123901,2.940000057220459,-4.059999942779541,-0.9800000190734864,60.130313873291016,-9.077115058898926,51.39894485473633,9.820494651794434,-1.1581674814224243,0.6963362693786621,0.4200000166893005,-1.4700000286102295,-1.3300000429153442,20.850000381469727,-84.0,-27.600000381469727
1726865373.03167,9.64341926574707,-0.1914326548576355,0.5360113978385925,1.680000066757202,-3.7100000381469727,-0.8400000333786011,57.32512664794922,-8.363712310791016,49.02085494995117,9.830066680908203,-1.1677391529083252,0.6556568145751953,-0.4900000095367431,-1.5399999618530271,-1.3300000429153442,21.30000114440918,-86.10000610351562,-27.30000114440918
1726865373.0573108,9.664956092834473,-0.3278284072875976,0.4785816073417663,1.1200000047683716,-4.130000114440918,-0.5600000023841858,57.50369644165039,-8.125118255615234,49.342323303222656,9.782208442687988,-1.1940611600875854,0.7968384027481079,-0.9800000190734864,-1.75,-1.4700000286102295,20.700000762939453,-82.80000305175781,-27.000001907348636
1726865373.082952,9.72238540649414,-0.3350071310997009,0.4809745252132416,2.309999942779541,-4.550000190734863,-0.2100000083446502,56.628047943115234,-6.394409656524658,48.67368698120117,9.758278846740724,-1.3089207410812378,0.7848738431930542,-1.399999976158142,-1.9600000381469729,-1.399999976158142,19.80000114440918,-84.9000015258789,-25.500001907348636
1726865373.108593,9.650598526000977,-0.1698964685201645,0.5431901216506958,3.430000066757202,-4.409999847412109,-0.0700000002980232,56.69223403930664,-7.980820178985596,49.79389572143555,9.822887420654297,-1.4022440910339355,0.7489802241325378,-0.8400000333786011,-1.8899999856948853,-1.1200000047683716,21.0,-84.75,-26.55000114440918
1726865373.121924,9.700849533081056,-0.2392908036708831,0.619763195514679,2.940000057220459,-4.269999980926514,-0.2100000083446502,57.05540466308594,-6.182224750518799,50.25048065185547,9.82767391204834,-1.237133502960205,0.6508709788322449,-0.1400000005960464,-1.8200000524520876,-1.399999976158142,19.200000762939453,-84.9000015258789,-26.250001907348636
1726865373.147565,9.751100540161133,-0.2105759084224701,0.4450809061527252,1.8899999856948853,-4.480000019073486,-0.699999988079071,58.53654098510742,-7.742027759552002,51.64628982543945,9.779815673828123,-1.2610626220703125,0.746587336063385,0.3499999940395355,-1.8200000524520876,-1.4700000286102295,19.950000762939453,-83.25,-27.150001525878903
1726865373.173206,9.693670272827148,-0.2033971846103668,0.5192610621452332,2.450000047683716,-4.480000019073486,-0.6299999952316284,56.57917785644531,-8.485408782958984,50.26594924926758,9.760672569274902,-1.2227760553359983,0.7298369407653809,0.4200000166893005,-2.240000009536743,-1.190000057220459,19.950000762939453,-84.30000305175781,-26.250001907348636
1726865373.198847,9.727170944213867,-0.205790102481842,0.5240468978881836,2.1700000762939453,-3.920000076293945,-0.5600000023841858,56.00239944458008,-7.889696598052978,47.71188354492188,9.798958778381348,-1.201239824295044,0.7776951193809509,0.8400000333786011,-2.450000047683716,-1.0499999523162842,22.05000114440918,-83.70000457763672,-26.100000381469727
1726865373.225376,9.765458106994627,-0.2656128108501434,0.5958341360092163,1.6100000143051147,-3.990000009536743,-0.7699999809265137,58.45690536499024,-7.479007244110107,50.4317741394043,9.82528018951416,-1.1079164743423462,0.7035149931907654,0.0700000002980232,-2.1700000762939453,-1.2599999904632568,21.900001525878903,-84.60000610351562,-27.30000114440918
1726865373.2510169,9.73195743560791,-0.3350071310997009,0.4737958014011383,1.9600000381469729,-4.760000228881836,-0.7699999809265137,57.96611785888672,-10.065037727355955,48.85515975952149,9.741528511047363,-1.1725249290466309,0.7250511646270752,-0.9100000262260436,-2.0999999046325684,-1.3300000429153442,21.600000381469727,-84.9000015258789,-27.750001907348636
1726865373.276658,9.719992637634276,-0.2584340870380401,0.4929390549659729,3.3600001335144043,-4.550000190734863,-0.6299999952316284,58.775047302246094,-8.330164909362793,50.27875900268555,9.853995323181152,-1.277812957763672,0.7561589479446411,-1.399999976158142,-2.380000114440918,-1.3300000429153442,19.5,-84.45000457763672,-26.250001907348636
1726865373.302299,9.64581298828125,-0.0981092303991317,0.5455830693244934,3.009999990463257,-3.920000076293945,-0.4900000095367431,55.89326858520508,-4.913835048675537,51.043853759765625,9.877924919128418,-1.2658483982086182,0.7178724408149719,-0.9100000262260436,-2.380000114440918,-1.1200000047683716,20.25,-86.10000610351562,-26.100000381469727
1726865373.316825,9.698456764221191,-0.2129688262939453,0.4690099954605102,1.399999976158142,-4.199999809265137,-0.4200000166893005,58.57938766479492,-6.972436428070068,50.240379333496094,9.858781814575195,-1.239526391029358,0.7776951193809509,-0.4900000095367431,-2.0299999713897705,-1.399999976158142,18.75,-84.1500015258789,-28.200000762939453
1726865373.342466,9.798958778381348,-0.2775773406028747,0.4522596299648285,1.2599999904632568,-4.269999980926514,-0.4900000095367431,58.30320739746094,-6.392228603363037,50.48526763916016,9.74870777130127,-1.2155972719192505,0.7753022313117981,-0.3499999940395355,-1.8899999856948853,-1.8200000524520876,21.450000762939453,-82.80000305175781,-26.55000114440918
1726865373.368107,9.741528511047363,-0.2273262739181518,0.44268798828125,2.0999999046325684,-4.199999809265137,-0.4200000166893005,57.421531677246094,-5.982927322387695,50.00298309326172,9.717599868774414,-1.296956181526184,0.7226582169532776,-0.5600000023841858,-2.0999999046325684,-1.190000057220459,19.5,-84.1500015258789,-27.150001525878903
1726865373.393748,9.700849533081056,-0.2010042816400528,0.540797233581543,2.0999999046325684,-4.059999942779541,-0.4200000166893005,55.52157211303711,-5.673869609832764,48.8088264465332,9.86117458343506,-1.2490980625152588,0.7489802241325378,-0.3499999940395355,-2.240000009536743,-0.8400000333786011,21.450000762939453,-84.60000610351562,-27.000001907348636
1726865373.346772,9.708027839660645,-0.2560411691665649,0.5910483002662659,1.75,-4.059999942779541,-0.4200000166893005,55.64273071289063,-6.4877142906188965,48.944114685058594,9.856388092041016,-1.1844894886016846,0.7154794931411743,-0.2800000011920929,-1.9600000381469729,-1.1200000047683716,19.950000762939453,-86.25,-28.500001907348636
1726865373.372413,9.719992637634276,-0.260826975107193,0.4570454359054565,1.8899999856948853,-4.199999809265137,-0.4900000095367431,58.00215530395508,-7.137393951416016,50.35519027709961,9.8085298538208,-1.2323477268218994,0.8111958503723145,-0.2100000083446502,-2.0299999713897705,-1.4700000286102295,19.650001525878903,-85.35000610351562,-27.450000762939453
1726865373.398054,9.667348861694336,-0.3254354894161224,0.5264397859573364,2.870000123977661,-4.199999809265137,-0.4900000095367431,57.42491912841797,-7.302351951599121,50.470001220703125,9.779815673828123,-1.2610626220703125,0.7489802241325378,-0.2800000011920929,-2.0999999046325684,-1.3300000429153442,20.850000381469727,-83.55000305175781,-26.850000381469727
1726865373.423695,9.698456764221191,-0.2225404530763626,0.4929390549659729,3.150000095367432,-3.849999904632568,-0.8400000333786011,59.09493637084961,-7.581035137176514,50.97015380859375,9.81092357635498,-1.2490980625152588,0.708300769329071,0.1400000005960464,-2.0299999713897705,-1.1200000047683716,21.75,-84.30000305175781,-27.450000762939453
1726865373.4694428,9.655384063720703,-0.2536482512950897,0.5671192407608032,2.940000057220459,-3.849999904632568,-0.8400000333786011,56.814720153808594,-7.474248886108398,49.602500915527344,9.84203052520752,-1.2562767267227173,0.765730619430542,0.6299999952316284,-2.0299999713897705,-1.5399999618530271,20.55000114440918,-84.30000305175781,-27.30000114440918
1726865373.4950838,9.734350204467772,-0.2416837215423584,0.461831271648407,2.940000057220459,-3.920000076293945,-0.6299999952316284,57.724220275878906,-8.157475471496582,49.75566864013672,9.803744316101074,-1.239526391029358,0.7729093432426453,0.9100000262260436,-1.8200000524520876,-1.9600000381469729,21.75,-84.0,-27.150001525878903
1726865373.520725,9.75588607788086,-0.1866468340158462,0.4714028835296631,3.849999904632568,-4.340000152587891,-0.5600000023841858,56.30266952514648,-3.665072441101074,50.56154251098633,9.758278846740724,-1.2825987339019775,0.7537660598754883,0.9100000262260436,-1.8200000524520876,-1.8200000524520876,20.55000114440918,-85.35000610351562,-25.80000114440918
1726865373.546366,9.693670272827148,-0.1722893863916397,0.4690099954605102,3.640000104904175,-4.199999809265137,-0.7699999809265137,56.255897521972656,-7.915114402770996,49.10753631591797,9.79417324066162,-1.2945632934570312,0.6867645978927612,1.5399999618530271,-1.75,-1.680000066757202,20.700000762939453,-83.70000457763672,-27.000001907348636
1726865373.5116968,9.657776832580566,-0.1340028494596481,0.5144752264022827,1.9600000381469729,-4.059999942779541,-0.7699999809265137,58.10743713378906,-9.5545015335083,49.2250862121582,9.832459449768066,-1.148595929145813,0.6412993669509888,1.9600000381469729,-1.8200000524520876,-1.680000066757202,20.100000381469727,-84.60000610351562,-26.400001525878903
1726865373.5373378,9.719992637634276,-0.260826975107193,0.4115802049636841,0.3499999940395355,-4.130000114440918,-0.6299999952316284,57.01508712768555,-8.830987930297852,49.781211853027344,9.798958778381348,-1.0361292362213137,0.7322298884391785,0.4900000095367431,-1.8899999856948853,-1.5399999618530271,21.600000381469727,-85.35000610351562,-26.250001907348636
1726865373.562979,9.767850875854492,-0.308685153722763,0.4570454359054565,1.190000057220459,-4.409999847412109,-0.4900000095367431,57.53195571899414,-8.119170188903809,50.184303283691406,9.786993980407717,-1.2251689434051514,0.7944455146789551,-1.0499999523162842,-2.0299999713897705,-1.4700000286102295,21.450000762939453,-84.30000305175781,-26.400001525878903
1726865373.58862,9.633848190307615,-0.2751844227313995,0.4953319728374481,2.240000009536743,-4.340000152587891,-0.699999988079071,58.43378829956055,-7.204090595245361,50.90122222900391,9.849209785461426,-1.3304568529129028,0.746587336063385,-1.0499999523162842,-1.8899999856948853,-1.2599999904632568,21.150001525878903,-84.1500015258789,-26.700000762939453
1726865373.6004028,9.655384063720703,-0.2010042816400528,0.5431901216506958,2.0999999046325684,-4.269999980926514,-0.5600000023841858,57.32687759399414,-6.763423919677734,49.865264892578125,9.82528018951416,-1.263455510139465,0.6915504336357117,-0.3499999940395355,-1.6100000143051147,-1.399999976158142,20.850000381469727,-85.5,-27.000001907348636
1726865373.6260438,9.743921279907228,-0.3302213251590729,0.4355092644691467,1.8200000524520876,-4.340000152587891,-0.6299999952316284,59.2529182434082,-8.946695327758789,49.88589477539063,9.72238540649414,-1.2490980625152588,0.727444052696228,-0.4200000166893005,-1.680000066757202,-1.399999976158142,20.700000762939453,-84.0,-25.80000114440918
1726865373.651685,9.82767391204834,-0.2153617292642593,0.4498667120933532,3.009999990463257,-4.409999847412109,-0.6299999952316284,59.41044235229492,-11.07302474975586,51.470516204833984,9.775029182434082,-1.299349069595337,0.7824809551239014,-0.1400000005960464,-1.9600000381469729,-1.190000057220459,20.55000114440918,-85.80000305175781,-27.450000762939453
1726865373.677326,9.667348861694336,-0.2225404530763626,0.4690099954605102,3.569999933242798,-4.480000019073486,-0.9800000190734864,57.557254791259766,-6.513925552368164,51.73036575317383,9.846817016601562,-1.2347406148910522,0.6891575455665588,0.6299999952316284,-2.0999999046325684,-1.2599999904632568,20.400001525878903,-84.75,-26.250001907348636
1726865373.6618268,9.657776832580566,-0.1746822893619537,0.509689450263977,2.5899999141693115,-3.990000009536743,-0.9800000190734864,58.89664077758789,-8.864137649536133,51.58515167236328,9.8444242477417,-1.1366313695907593,0.6891575455665588,0.7699999809265137,-2.0299999713897705,-1.6100000143051147,21.30000114440918,-84.1500015258789,-26.55000114440918
1726865373.6874678,9.679313659667969,-0.2919347882270813,0.4977248907089233,2.0299999713897705,-3.920000076293945,-0.6299999952316284,56.58948516845703,-7.442883491516113,49.048828125,9.71520709991455,-1.1749178171157837,0.7370156645774841,0.3499999940395355,-2.0999999046325684,-1.680000066757202,20.400001525878903,-84.9000015258789,-26.850000381469727
1726865373.713109,9.71520709991455,-0.2177546322345733,0.4761887192726135,2.0999999046325684,-4.269999980926514,-0.2800000011920929,56.730804443359375,-6.932346820831299,49.41875457763672,9.73195743560791,-1.3160994052886963,0.7800880670547485,-0.1400000005960464,-2.380000114440918,-1.5399999618530271,19.80000114440918,-85.35000610351562,-26.55000114440918
1726865373.73875,9.758278846740724,-0.205790102481842,0.44268798828125,0.6299999952316284,-5.110000133514404,-0.0700000002980232,59.55133056640625,-10.842361450195312,50.66934967041016,9.81092357635498,-1.3256710767745972,0.7896596789360046,0.699999988079071,-2.5899999141693115,-1.3300000429153442,20.55000114440918,-84.9000015258789,-26.700000762939453
1726865373.7962978,9.698456764221191,-0.2991135120391845,0.4331163763999939,0.9800000190734864,-4.760000228881836,0.2100000083446502,58.44573593139648,-9.081278800964355,49.30670166015625,9.81092357635498,-1.2251689434051514,0.7226582169532776,0.699999988079071,-2.380000114440918,-1.1200000047683716,20.55000114440918,-84.30000305175781,-25.500001907348636
1726865373.821939,9.784601211547852,-0.1962184607982635,0.4091872870922088,2.309999942779541,-4.269999980926514,0.4200000166893005,57.3628044128418,-8.355782508850098,50.14349365234375,9.798958778381348,-1.3017419576644895,0.7370156645774841,0.2800000011920929,-2.1700000762939453,-1.0499999523162842,19.950000762939453,-86.10000610351562,-26.400001525878903
1726865373.84758,9.712814331054688,-0.1244312226772308,0.5025107264518738,2.240000009536743,-4.059999942779541,0.3499999940395355,55.78744125366211,-7.296602249145508,49.78105926513672,9.79177951812744,-1.3089207410812378,0.7418015003204346,0.4900000095367431,-2.1700000762939453,-1.1200000047683716,21.0,-85.05000305175781,-26.400001525878903
1726865373.8451009,9.64341926574707,-0.1411815732717514,0.5838695764541626,0.5600000023841858,-4.059999942779541,0.0,58.38580322265625,-8.254547119140625,50.995704650878906,9.873138427734377,-1.2132043838500977,0.6412993669509888,0.8400000333786011,-1.8899999856948853,-0.9800000190734864,20.25,-85.6500015258789,-26.250001907348636
1726865373.826779,9.815709114074709,-0.3206496834754944,0.4737958014011383,-0.4200000166893005,-4.340000152587891,-0.7699999809265137,59.07389068603516,-9.945959091186523,52.233306884765625,9.79177951812744,-1.1198810338974,0.6389064788818359,-0.1400000005960464,-1.680000066757202,-0.9800000190734864,19.950000762939453,-85.05000305175781,-27.150001525878903
1726865373.85242,9.75588607788086,-0.2943277060985565,0.4091872870922088,1.0499999523162842,-4.409999847412109,-0.8400000333786011,59.15234375,-6.5285964012146,51.15633392333984,9.729564666748049,-1.170132040977478,0.7920525670051575,-1.680000066757202,-2.1700000762939453,-0.8400000333786011,20.400001525878903,-84.30000305175781,-26.850000381469727
1726865373.878061,9.7391357421875,-0.2680056989192962,0.521653950214386,2.380000114440918,-4.130000114440918,-0.9100000262260436,59.39466857910156,-8.156286239624023,51.42691802978516,9.79417324066162,-1.1725249290466309,0.7968384027481079,-2.450000047683716,-2.240000009536743,-0.699999988079071,20.850000381469727,-84.1500015258789,-26.700000762939453
1726865373.903702,9.73195743560791,-0.3015064299106598,0.5001177787780762,2.940000057220459,-3.640000104904175,-1.1200000047683716,58.06843948364258,-10.882847785949709,48.42913055419922,9.830066680908203,-1.2419192790985107,0.765730619430542,-2.5899999141693115,-1.9600000381469729,-1.0499999523162842,21.75,-86.70000457763672,-26.55000114440918
1726865373.901856,9.79417324066162,-0.3134709596633911,0.5144752264022827,3.3600001335144043,-3.569999933242798,-1.190000057220459,55.79643249511719,-7.574492931365967,48.890625,9.815709114074709,-1.268241286277771,0.7609447836875916,-1.8200000524520876,-1.75,-1.5399999618530271,19.80000114440918,-83.70000457763672,-27.000001907348636
1726865373.927497,9.758278846740724,-0.3661149442195892,0.4044014811515808,4.409999847412109,-3.990000009536743,-1.399999976158142,58.68981552124024,-9.108678817749023,50.42169952392578,9.79417324066162,-1.3256710767745972,0.7130866050720215,-1.4700000286102295,-1.9600000381469729,-1.4700000286102295,20.25,-85.5,-27.600000381469727
1726865373.953138,9.684099197387695,-0.1603248417377472,0.4761887192726135,4.480000019073486,-3.7100000381469727,-1.190000057220459,58.694522857666016,-9.10768699645996,50.56203079223633,9.90424633026123,-1.2873845100402832,0.7992312908172607,-0.8400000333786011,-1.9600000381469729,-1.4700000286102295,20.850000381469727,-85.6500015258789,-26.400001525878903
1726865373.978779,9.621883392333984,-0.1387886703014373,0.4474738240242004,3.289999961853028,-3.3600001335144043,-0.699999988079071,56.67339706420898,-7.984785556793213,49.23257446289063,9.846817016601562,-1.2921704053878784,0.7226582169532776,-0.1400000005960464,-1.8899999856948853,-2.0999999046325684,21.0,-83.70000457763672,-27.30000114440918
1726865373.9767568,9.676919937133787,-0.1555390208959579,0.5072965025901794,2.5199999809265137,-3.3600001335144043,-0.4200000166893005,57.18937683105469,-8.313511848449707,51.13345336914063,9.77263641357422,-1.3687434196472168,0.7561589479446411,0.4200000166893005,-1.5399999618530271,-2.380000114440918,19.350000381469727,-86.25,-26.250001907348636
1726865374.0023978,9.693670272827148,-0.2153617292642593,0.521653950214386,2.0299999713897705,-4.269999980926514,-0.2100000083446502,57.36794662475586,-8.07491683959961,51.45491790771485,9.729564666748049,-1.3400285243988037,0.6987291574478149,1.5399999618530271,-1.4700000286102295,-2.0299999713897705,20.25,-83.55000305175781,-26.850000381469727
1726865374.028039,9.696063995361328,-0.2488624453544616,0.5001177787780762,1.6100000143051147,-3.990000009536743,-0.6299999952316284,57.80210876464844,-10.020784378051758,50.12577438354492,9.724778175354004,-1.1892752647399902,0.6580497026443481,1.4700000286102295,-1.4700000286102295,-1.4700000286102295,19.5,-85.35000610351562,-26.55000114440918
1726865374.05368,9.770243644714355,-0.1531461179256439,0.4809745252132416,1.5399999618530271,-3.920000076293945,-0.6299999952316284,57.63898849487305,-8.935988426208496,49.89860916137695,9.815709114074709,-1.1198810338974,0.667621374130249,-0.1400000005960464,-1.399999976158142,-0.9800000190734864,19.80000114440918,-84.75,-27.000001907348636
1726865374.0957167,9.693670272827148,-0.2153617292642593,0.4833674430847168,0.9800000190734864,-3.7799999713897705,-0.699999988079071,59.86825942993164,-8.49393367767334,52.064823150634766,9.770243644714355,-1.1438100337982178,0.7130866050720215,-2.1700000762939453,-1.5399999618530271,-1.1200000047683716,21.0,-83.55000305175781,-26.700000762939453
1726865374.121358,9.786993980407717,-0.3230426013469696,0.49054616689682,0.4900000095367431,-3.7799999713897705,-0.8400000333786011,59.09065628051758,-7.30215311050415,52.00092315673828,9.820494651794434,-1.148595929145813,0.7298369407653809,-3.289999961853028,-1.680000066757202,-1.2599999904632568,20.850000381469727,-85.05000305175781,-27.30000114440918
1726865374.146999,9.741528511047363,-0.4690099954605102,0.5240468978881836,1.3300000429153442,-4.340000152587891,-0.8400000333786011,55.90214538574219,-9.711727142333984,48.93161392211914,9.765458106994627,-1.2897775173187256,0.6891575455665588,-3.7799999713897705,-2.0299999713897705,-1.2599999904632568,20.55000114440918,-84.0,-27.150001525878903
1726865374.1451468,9.657776832580566,-0.3996156454086303,0.4785816073417663,2.940000057220459,-4.269999980926514,-0.4900000095367431,58.01025390625,-8.455826759338379,50.9625358581543,9.82528018951416,-1.4118157625198364,0.758551836013794,-2.6600000858306885,-2.1700000762939453,-1.190000057220459,19.80000114440918,-84.75,-26.250001907348636
1726865374.141871,9.66256332397461,-0.2464695274829864,0.5503688454627991,3.920000076293945,-3.7799999713897705,-0.3499999940395355,58.93773651123047,-9.69483470916748,49.33483123779297,9.832459449768066,-1.454888105392456,0.8614469170570374,-1.190000057220459,-1.9600000381469729,-1.399999976158142,21.900001525878903,-85.20000457763672,-26.55000114440918
1726865374.167512,9.7391357421875,-0.1651106625795364,0.5120823383331299,3.640000104904175,-3.640000104904175,-0.2100000083446502,56.75392150878906,-7.207263469696045,48.949310302734375,9.758278846740724,-1.4142086505889893,0.7705163955688477,0.699999988079071,-1.680000066757202,-1.6100000143051147,20.400001525878903,-84.1500015258789,-26.400001525878903
1726865374.1931531,9.719992637634276,-0.1914326548576355,0.4977248907089233,3.0799999237060547,-3.920000076293945,-0.2800000011920929,57.58333206176758,-8.388139724731445,50.55683517456055,9.77263641357422,-1.2921704053878784,0.6436922550201416,1.9600000381469729,-1.6100000143051147,-1.5399999618530271,19.05000114440918,-84.60000610351562,-27.900001525878903
1726865374.218794,9.727170944213867,-0.2201475501060485,0.44268798828125,2.380000114440918,-4.690000057220459,-0.2100000083446502,57.26947021484375,-7.81586217880249,49.67908477783203,9.753493309020996,-1.1629533767700195,0.6532639265060425,2.309999942779541,-1.8899999856948853,-1.1200000047683716,19.5,-84.45000457763672,-25.80000114440918
1726865374.21674,9.672134399414062,-0.2321120798587799,0.5264397859573364,1.8899999856948853,-4.130000114440918,-0.2800000011920929,58.29585647583008,-9.034051895141602,50.99831008911133,9.858781814575195,-1.0361292362213137,0.7418015003204346,1.190000057220459,-2.0299999713897705,-1.0499999523162842,20.850000381469727,-84.45000457763672,-25.80000114440918
1726865374.2423809,9.70563507080078,-0.1627177447080612,0.4785816073417663,1.4700000286102295,-3.849999904632568,-0.4900000095367431,59.5111198425293,-8.971121788024902,51.42188262939453,9.786993980407717,-1.115095138549805,0.8303391337394714,-0.8400000333786011,-1.8200000524520876,-1.399999976158142,21.150001525878903,-84.60000610351562,-26.400001525878903
1726865374.268022,9.68649196624756,-0.2416837215423584,0.5360113978385925,0.9100000262260436,-3.5,-0.4200000166893005,57.20307540893555,-8.590410232543945,50.38334274291992,9.75588607788086,-1.2036327123641968,0.7441943883895874,-2.309999942779541,-1.680000066757202,-1.3300000429153442,19.650001525878903,-85.80000305175781,-26.100000381469727
1726865374.293663,9.648205757141112,-0.2680056989192962,0.4929390549659729,0.9100000262260436,-4.059999942779541,-0.2800000011920929,58.835845947265625,-8.597151756286621,50.93195343017578,9.760672569274902,-1.356778860092163,0.6628355383872986,-2.1700000762939453,-1.75,-1.1200000047683716,21.0,-84.75,-25.650001525878903
1726865374.2919598,9.77263641357422,-0.3374000489711761,0.461831271648407,2.0999999046325684,-3.920000076293945,-0.0700000002980232,58.90605926513672,-8.862154960632324,51.86581039428711,9.760672569274902,-1.3304568529129028,0.7346227765083313,-1.4700000286102295,-2.1700000762939453,-0.699999988079071,20.700000762939453,-84.45000457763672,-27.450000762939453
1726865374.3176007,9.710420608520508,-0.2129688262939453,0.5144752264022827,3.0799999237060547,-4.340000152587891,-0.3499999940395355,59.023834228515625,-8.356575012207031,51.53408432006836,9.832459449768066,-1.3304568529129028,0.7920525670051575,-0.5600000023841858,-1.9600000381469729,-0.8400000333786011,21.30000114440918,-84.0,-27.150001525878903
1726865374.343242,9.66016960144043,-0.2560411691665649,0.5384043455123901,2.5899999141693115,-4.409999847412109,-0.699999988079071,57.94824600219727,-4.989254951477051,51.85783004760742,9.815709114074709,-1.1509888172149658,0.679585874080658,0.4900000095367431,-1.5399999618530271,-1.0499999523162842,19.80000114440918,-84.60000610351562,-25.350000381469727
1726865374.368883,9.717599868774414,-0.284756064414978,0.5120823383331299,2.6600000858306885,-4.340000152587891,-0.9100000262260436,55.33269119262695,-6.954988956451416,49.7044792175293,9.770243644714355,-1.2275618314743042,0.6915504336357117,0.3499999940395355,-1.75,-1.399999976158142,19.05000114440918,-82.6500015258789,-25.350000381469727
1726865374.421547,9.775029182434082,-0.2225404530763626,0.4714028835296631,2.7300000190734863,-4.199999809265137,-0.6299999952316284,56.27691268920898,-6.030987739562988,51.68436050415039,9.789386749267578,-1.217990159988403,0.8135887384414673,-0.1400000005960464,-2.0999999046325684,-1.5399999618530271,20.55000114440918,-85.5,-27.000001907348636
1726865374.447188,9.751100540161133,-0.260826975107193,0.4929390549659729,2.6600000858306885,-4.199999809265137,-0.7699999809265137,58.35415267944336,-6.941070079803467,49.68670654296875,9.8444242477417,-1.2897775173187256,0.8279461860656738,-0.2100000083446502,-2.1700000762939453,-1.680000066757202,20.100000381469727,-83.55000305175781,-28.500001907348636
1726865374.445109,9.672134399414062,-0.1722893863916397,0.4833674430847168,2.0999999046325684,-4.619999885559082,-0.4900000095367431,55.467552185058594,-8.045732498168945,49.08966445922852,9.832459449768066,-1.3208853006362915,0.7346227765083313,0.2100000083446502,-1.8200000524520876,-1.5399999618530271,19.80000114440918,-84.30000305175781,-26.700000762939453
1726865374.47075,9.681706428527832,-0.2297191768884658,0.49054616689682,1.5399999618530271,-4.199999809265137,-0.3499999940395355,60.03697967529297,-8.537195205688477,50.93453598022461,9.77263641357422,-1.25866961479187,0.6604426503181458,0.5600000023841858,-1.8200000524520876,-1.3300000429153442,19.5,-85.5,-26.55000114440918
1726865374.4567058,9.753493309020996,-0.2488624453544616,0.4522596299648285,1.399999976158142,-3.7799999713897705,-0.4200000166893005,58.38405227661133,-9.854835510253906,50.15129470825195,9.741528511047363,-1.1653462648391724,0.7489802241325378,0.4200000166893005,-2.0299999713897705,-1.1200000047683716,20.400001525878903,-85.5,-27.150001525878903
1726865374.4823468,9.693670272827148,-0.2225404530763626,0.4929390549659729,1.5399999618530271,-3.640000104904175,-0.6299999952316284,60.668548583984375,-10.240503311157228,50.48817825317383,9.856388092041016,-1.1581674814224243,0.758551836013794,-0.4200000166893005,-2.0999999046325684,-0.8400000333786011,21.0,-84.1500015258789,-27.450000762939453
1726865374.507988,9.753493309020996,-0.308685153722763,0.5049036145210266,1.0499999523162842,-3.3600001335144043,-0.7699999809265137,56.01399993896485,-6.007552146911621,50.00804901123047,9.870745658874512,-1.1270596981048584,0.6652284264564514,-1.75,-2.0299999713897705,-0.8400000333786011,20.400001525878903,-83.4000015258789,-26.700000762939453
1726865374.533629,9.698456764221191,-0.3302213251590729,0.5503688454627991,0.8400000333786011,-3.150000095367432,-0.8400000333786011,56.01399993896485,-6.007552146911621,50.00804901123047,9.775029182434082,-1.1892752647399902,0.7705163955688477,-2.309999942779541,-1.8899999856948853,-1.2599999904632568,20.850000381469727,-84.60000610351562,-25.80000114440918
1726865374.53174,9.667348861694336,-0.3493645787239074,0.4833674430847168,1.2599999904632568,-3.430000066757202,-0.9100000262260436,57.58803939819336,-8.387147903442383,50.69716644287109,9.796566009521484,-1.3400285243988037,0.7322298884391785,-2.380000114440918,-1.9600000381469729,-1.680000066757202,20.850000381469727,-83.55000305175781,-25.650001525878903
1726865374.557381,9.684099197387695,-0.2584340870380401,0.4355092644691467,2.450000047683716,-4.059999942779541,-0.4900000095367431,57.63559722900391,-7.616564750671387,49.43159103393555,9.820494651794434,-1.404637098312378,0.7130866050720215,-1.680000066757202,-1.9600000381469729,-1.680000066757202,20.55000114440918,-84.9000015258789,-26.100000381469727
1726865374.583022,9.64581298828125,-0.2416837215423584,0.5168681740760803,2.870000123977661,-4.480000019073486,-0.2100000083446502,57.9151725769043,-9.516196250915527,49.653717041015625,9.75588607788086,-1.416601538658142,0.6915504336357117,-0.2800000011920929,-1.5399999618530271,-1.5399999618530271,19.650001525878903,-85.6500015258789,-25.80000114440918
1726865374.608663,9.624276161193848,-0.181861013174057,0.5503688454627991,2.309999942779541,-4.269999980926514,-0.4200000166893005,57.884273529052734,-12.162976264953612,49.46511459350586,9.693670272827148,-1.2323477268218994,0.6891575455665588,1.2599999904632568,-1.3300000429153442,-1.6100000143051147,21.150001525878903,-85.05000305175781,-26.400001525878903
1726865374.6070218,9.789386749267578,-0.1483602970838546,0.4307234585285187,1.1200000047683716,-4.130000114440918,-0.699999988079071,57.3628044128418,-8.355782508850098,50.14349365234375,9.68649196624756,-1.0528795719146729,0.7561589479446411,0.699999988079071,-1.6100000143051147,-1.4700000286102295,19.950000762939453,-85.05000305175781,-28.200000762939453
1726865374.6326628,9.82767391204834,-0.308685153722763,0.5431901216506958,1.1200000047683716,-4.130000114440918,-0.9800000190734864,57.489105224609375,-8.888761520385742,51.590213775634766,9.813316345214844,-1.081594467163086,0.6963362693786621,-1.6100000143051147,-2.0299999713897705,-1.190000057220459,22.350000381469727,-85.35000610351562,-25.05000114440918
1726865374.658304,9.7391357421875,-0.3062922358512878,0.5766908526420593,1.399999976158142,-3.920000076293945,-0.9100000262260436,58.52416229248047,-6.144712924957275,52.069705963134766,9.899460792541504,-1.217990159988403,0.6987291574478149,-3.3600001335144043,-2.0299999713897705,-1.4700000286102295,19.80000114440918,-85.95000457763672,-27.150001525878903
1726865374.683945,9.664956092834473,-0.3996156454086303,0.509689450263977,1.0499999523162842,-3.0799999237060547,-0.7699999809265137,59.50641250610352,-8.972112655639648,51.281551361083984,9.789386749267578,-1.3687434196472168,0.8111958503723145,-3.7799999713897705,-2.0999999046325684,-1.680000066757202,21.900001525878903,-85.5,-28.200000762939453
1726865374.721441,9.70563507080078,-0.3756865561008453,0.4235447347164154,2.0299999713897705,-3.569999933242798,-0.5600000023841858,57.81844711303711,-7.65685224533081,48.7222900390625,9.741528511047363,-1.531461238861084,0.8518753051757812,-2.380000114440918,-2.1700000762939453,-1.4700000286102295,20.25,-86.10000610351562,-27.30000114440918
1726865374.747082,9.667348861694336,-0.3924369215965271,0.4283305406570434,3.150000095367432,-4.269999980926514,-0.9100000262260436,55.35538101196289,-7.509778499603271,48.06393432617188,9.851602554321287,-1.3926725387573242,0.6628355383872986,0.0700000002980232,-1.8899999856948853,-1.190000057220459,18.900001525878903,-83.55000305175781,-26.400001525878903
1726865374.745313,9.760672569274902,-0.2680056989192962,0.4187589287757873,3.920000076293945,-4.480000019073486,-0.699999988079071,59.52778244018555,-10.847318649291992,49.96769714355469,9.767850875854492,-1.2658483982086182,0.6436922550201416,1.4700000286102295,-1.75,-1.399999976158142,19.05000114440918,-85.5,-26.250001907348636
1726865374.770954,9.751100540161133,-0.1986113786697387,0.4474738240242004,3.640000104904175,-4.059999942779541,-0.7699999809265137,55.22391128540039,-7.73845911026001,49.1457633972168,9.815709114074709,-1.237133502960205,0.7441943883895874,1.190000057220459,-1.8200000524520876,-1.8899999856948853,20.400001525878903,-84.75,-27.450000762939453
1726865374.7717218,9.68649196624756,-0.1387886703014373,0.6508709788322449,2.940000057220459,-3.5,-0.9800000190734864,58.688926696777344,-10.149222373962402,51.91948318481445,9.863567352294922,-1.239526391029358,0.765730619430542,0.7699999809265137,-1.6100000143051147,-2.0999999046325684,19.200000762939453,-85.20000457763672,-28.05000114440918
1726865374.7973628,9.667348861694336,-0.205790102481842,0.5575475692749023,2.380000114440918,-3.990000009536743,-0.8400000333786011,58.339134216308594,-7.984586715698242,50.76349639892578,9.770243644714355,-1.2730270624160769,0.7753022313117981,0.3499999940395355,-1.399999976158142,-1.75,20.400001525878903,-84.1500015258789,-26.700000762939453
1726865374.8201108,9.674527168273926,-0.2297191768884658,0.4857603311538696,1.9600000381469729,-3.920000076293945,-0.7699999809265137,55.03635025024414,-7.699163436889648,49.7147331237793,9.75588607788086,-1.1892752647399902,0.7609447836875916,0.1400000005960464,-1.8899999856948853,-1.190000057220459,21.0,-83.85000610351562,-26.700000762939453
1726865374.8457518,9.73195743560791,-0.2560411691665649,0.3924369215965271,1.399999976158142,-3.990000009536743,-0.699999988079071,60.15047073364258,-7.752733707427978,51.63357925415039,9.741528511047363,-1.1605603694915771,0.7800880670547485,-1.1200000047683716,-2.5199999809265137,-0.9800000190734864,19.650001525878903,-84.9000015258789,-27.150001525878903
1726865374.84702,9.743921279907228,-0.368507832288742,0.387651115655899,1.680000066757202,-3.920000076293945,-0.6299999952316284,57.57390975952149,-8.390122413635254,50.27617645263672,9.873138427734377,-1.263455510139465,0.667621374130249,-2.0299999713897705,-2.309999942779541,-0.9800000190734864,19.05000114440918,-84.9000015258789,-26.850000381469727
1726865374.8726609,9.664956092834473,-0.27997025847435,0.521653950214386,3.5,-4.130000114440918,-0.6299999952316284,54.93052673339844,-10.08193016052246,48.45193862915039,9.813316345214844,-1.3256710767745972,0.667621374130249,-1.680000066757202,-1.8899999856948853,-1.399999976158142,20.55000114440918,-84.1500015258789,-27.750001907348636
1726865374.898302,9.746315002441406,-0.2488624453544616,0.5312256217002869,3.289999961853028,-4.409999847412109,-0.4200000166893005,58.095489501953125,-7.677313327789307,50.81959915161133,9.763065338134766,-1.454888105392456,0.7441943883895874,-0.4200000166893005,-1.8200000524520876,-1.75,18.600000381469727,-85.5,-27.450000762939453
1726865374.923943,9.741528511047363,-0.2751844227313995,0.4737958014011383,3.640000104904175,-4.130000114440918,-0.2100000083446502,56.96327972412109,-8.84189224243164,48.23758316040039,9.801351547241213,-1.416601538658142,0.7920525670051575,1.6100000143051147,-1.8899999856948853,-1.75,21.900001525878903,-84.0,-27.000001907348636
1726865374.9368098,9.719992637634276,-0.184253916144371,0.5049036145210266,3.430000066757202,-3.7799999713897705,-0.4200000166893005,59.40408706665039,-8.154303550720215,51.70758056640625,9.815709114074709,-1.2419192790985107,0.6915504336357117,2.5199999809265137,-1.6100000143051147,-1.5399999618530271,19.650001525878903,-85.05000305175781,-28.05000114440918
1726865374.9624507,9.624276161193848,-0.1651106625795364,0.5647262930870056,2.450000047683716,-3.7100000381469727,-0.5600000023841858,58.31776809692383,-6.109381675720215,52.07735061645508,9.820494651794434,-1.0935590267181396,0.727444052696228,1.8899999856948853,-1.8200000524520876,-1.6100000143051147,21.150001525878903,-84.30000305175781,-27.30000114440918
1726865374.988092,9.71520709991455,-0.308685153722763,0.4020085632801056,1.5399999618530271,-4.269999980926514,-1.0499999523162842,56.19805908203125,-9.24742603302002,47.75026321411133,9.789386749267578,-1.1174880266189575,0.7178724408149719,0.2100000083446502,-1.9600000381469729,-1.5399999618530271,20.25,-84.60000610351562,-26.850000381469727
1726865375.013733,9.801351547241213,-0.2416837215423584,0.5072965025901794,1.5399999618530271,-4.199999809265137,-1.2599999904632568,57.33454895019531,-8.361729621887207,49.301513671875,9.775029182434082,-1.1844894886016846,0.7035149931907654,-0.9800000190734864,-2.0299999713897705,-1.5399999618530271,20.100000381469727,-85.20000457763672,-25.05000114440918
1726865375.0121198,9.734350204467772,-0.308685153722763,0.461831271648407,1.75,-4.130000114440918,-0.9800000190734864,58.02045440673828,-11.933303833007812,48.52361297607422,9.8444242477417,-1.277812957763672,0.6963362693786621,-1.6100000143051147,-1.75,-1.5399999618530271,21.450000762939453,-84.0,-27.30000114440918
1726865375.0377607,9.664956092834473,-0.27997025847435,0.5599405169487,2.309999942779541,-3.990000009536743,-0.9100000262260436,56.96196365356445,-10.162306785583496,48.56427001953125,9.75588607788086,-1.3017419576644895,0.7106937170028687,-1.4700000286102295,-1.680000066757202,-1.8899999856948853,19.05000114440918,-83.55000305175781,-26.100000381469727
1726865375.063402,9.712814331054688,-0.3350071310997009,0.5264397859573364,3.0799999237060547,-3.920000076293945,-0.8400000333786011,53.72304153442383,-7.223164558410644,48.68642044067383,9.779815673828123,-1.359171748161316,0.7992312908172607,-0.4900000095367431,-1.680000066757202,-1.8899999856948853,21.0,-85.35000610351562,-26.250001907348636
1726865375.089043,9.758278846740724,-0.208183005452156,0.4642241597175598,3.3600001335144043,-3.640000104904175,-0.7699999809265137,55.17723846435547,-7.468499660491943,48.9135627746582,9.770243644714355,-1.3304568529129028,0.7561589479446411,0.699999988079071,-1.75,-1.5399999618530271,20.25,-84.0,-26.700000762939453
1726865375.086268,9.770243644714355,-0.3254354894161224,0.4546525478363037,2.5899999141693115,-3.7100000381469727,-1.190000057220459,58.46928405761719,-9.076322555541992,50.00835418701172,9.832459449768066,-1.1581674814224243,0.7059078812599182,1.190000057220459,-1.680000066757202,-1.399999976158142,21.450000762939453,-85.20000457763672,-27.150001525878903
1726865375.111909,9.68649196624756,-0.2297191768884658,0.4498667120933532,2.799999952316284,-3.7799999713897705,-1.2599999904632568,58.46928405761719,-9.076322555541992,50.00835418701172,9.8085298538208,-1.1677391529083252,0.7106937170028687,0.4900000095367431,-2.0999999046325684,-1.75,19.200000762939453,-83.70000457763672,-26.100000381469727
1726865375.13755,9.73195743560791,-0.1435744911432266,0.4690099954605102,2.940000057220459,-3.7799999713897705,-0.8400000333786011,56.90159606933594,-9.615448951721191,49.08217239379883,9.789386749267578,-1.2155972719192505,0.7776951193809509,0.0700000002980232,-2.1700000762939453,-2.0299999713897705,19.200000762939453,-83.4000015258789,-25.350000381469727
1726865375.163191,9.65299129486084,-0.1938255578279495,0.5599405169487,3.0799999237060547,-4.340000152587891,-0.699999988079071,56.70550537109375,-8.537592887878418,47.8726921081543,9.865960121154783,-1.306527853012085,0.6915504336357117,0.0700000002980232,-1.8899999856948853,-1.75,19.80000114440918,-83.10000610351562,-27.150001525878903
1726865375.1620398,9.712814331054688,-0.1938255578279495,0.4857603311538696,2.870000123977661,-4.550000190734863,-0.3499999940395355,57.11915969848633,-8.048508644104004,50.1995964050293,9.784601211547852,-1.2490980625152588,0.7394086122512817,0.3499999940395355,-1.75,-1.2599999904632568,19.200000762939453,-83.25,-27.150001525878903
1726865375.1876807,9.703242301940918,-0.1555390208959579,0.5144752264022827,2.0999999046325684,-3.7799999713897705,-0.5600000023841858,59.49096298217773,-10.295502662658691,51.18725204467773,9.8085298538208,-1.0624512434005735,0.7968384027481079,0.1400000005960464,-1.8200000524520876,-1.1200000047683716,21.450000762939453,-86.25,-25.500001907348636
1726865375.213322,9.729564666748049,-0.1651106625795364,0.4474738240242004,1.190000057220459,-3.7100000381469727,-0.9100000262260436,54.98115158081055,-6.390643119812012,47.70408248901367,9.79177951812744,-1.112702250480652,0.7202653288841248,-0.9100000262260436,-2.0999999046325684,-1.0499999523162842,20.400001525878903,-83.55000305175781,-27.000001907348636
1726865375.238963,9.65299129486084,-0.3230426013469696,0.4594383537769317,1.4700000286102295,-4.409999847412109,-1.0499999523162842,59.43705749511719,-8.147364616394043,52.68989181518555,9.820494651794434,-1.1270596981048584,0.6341206431388855,-2.309999942779541,-1.8899999856948853,-0.9800000190734864,20.25,-83.85000610351562,-25.950000762939453
1726865375.2517538,9.672134399414062,-0.2153617292642593,0.4977248907089233,1.8200000524520876,-4.550000190734863,-0.8400000333786011,57.257843017578125,-10.178803443908691,51.22289657592773,9.729564666748049,-1.246705174446106,0.7298369407653809,-2.6600000858306885,-2.1700000762939453,-1.399999976158142,20.850000381469727,-83.70000457763672,-26.100000381469727
1726865375.270562,9.712814331054688,-0.3445787727832794,0.4737958014011383,1.4700000286102295,-4.130000114440918,-1.0499999523162842,56.79280853271485,-10.398919105529783,48.5234603881836,9.81810188293457,-1.299349069595337,0.8518753051757812,-2.6600000858306885,-2.240000009536743,-1.6100000143051147,19.200000762939453,-85.20000457763672,-27.000001907348636
1726865375.296203,9.830066680908203,-0.1938255578279495,0.5479759573936462,1.680000066757202,-3.990000009536743,-1.0499999523162842,55.87092971801758,-8.118377685546875,48.7937126159668,9.8444242477417,-1.3639576435089111,0.746587336063385,-1.8899999856948853,-2.0299999713897705,-1.6100000143051147,18.75,-86.10000610351562,-26.100000381469727
1726865375.321844,9.698456764221191,-0.2727915346622467,0.4809745252132416,1.8899999856948853,-4.409999847412109,-0.8400000333786011,58.12199783325195,-9.27165412902832,50.817169189453125,9.798958778381348,-1.2825987339019775,0.6891575455665588,-0.8400000333786011,-1.8200000524520876,-1.5399999618530271,19.200000762939453,-85.20000457763672,-26.700000762939453
1726865375.3270829,9.717599868774414,-0.2105759084224701,0.5049036145210266,1.4700000286102295,-4.199999809265137,-0.699999988079071,57.90750503540039,-7.917890548706055,50.21746826171875,9.798958778381348,-1.1964540481567385,0.7250511646270752,-0.1400000005960464,-2.0299999713897705,-1.399999976158142,19.5,-84.9000015258789,-26.55000114440918
1726865375.345142,9.703242301940918,-0.2895418703556061,0.5336185097694397,1.2599999904632568,-3.849999904632568,-0.4900000095367431,59.00203323364258,-6.761242389678955,51.67684555053711,9.813316345214844,-1.2108114957809448,0.7513731122016907,-0.4900000095367431,-2.1700000762939453,-1.3300000429153442,21.75,-84.45000457763672,-26.250001907348636
1726865375.3707829,9.75588607788086,-0.2751844227313995,0.4474738240242004,1.6100000143051147,-3.7799999713897705,-0.8400000333786011,57.835079193115234,-10.013845443725586,51.10808563232422,9.853995323181152,-1.2419192790985107,0.7202653288841248,-1.190000057220459,-1.75,-1.4700000286102295,18.900001525878903,-83.85000610351562,-26.850000381469727
1726865375.396424,9.664956092834473,-0.2751844227313995,0.5360113978385925,2.6600000858306885,-4.199999809265137,-0.9100000262260436,58.40464401245117,-8.250581741333008,51.55702209472656,9.815709114074709,-1.1964540481567385,0.679585874080658,-1.75,-1.5399999618530271,-1.6100000143051147,21.450000762939453,-84.1500015258789,-28.500001907348636
1726865375.40183,9.64341926574707,-0.1555390208959579,0.5336185097694397,2.380000114440918,-4.130000114440918,-0.6299999952316284,58.29499816894531,-9.59379768371582,48.6561164855957,9.760672569274902,-1.3017419576644895,0.7968384027481079,-1.5399999618530271,-1.8200000524520876,-1.75,19.650001525878903,-84.1500015258789,-27.000001907348636
1726865375.4201298,9.667348861694336,-0.2512553632259369,0.5671192407608032,1.6100000143051147,-3.7100000381469727,-0.4200000166893005,58.49886322021485,-7.749958515167236,50.52364730834961,9.688884735107422,-1.3137065172195437,0.8327320218086243,-1.2599999904632568,-1.8200000524520876,-1.399999976158142,19.950000762939453,-85.5,-25.950000762939453
1726865375.453112,9.688884735107422,-0.2201475501060485,0.4642241597175598,2.450000047683716,-4.199999809265137,-0.4200000166893005,55.99723434448242,-8.651358604431152,50.24043273925781,9.803744316101074,-1.3256710767745972,0.7537660598754883,-0.8400000333786011,-1.75,-1.0499999523162842,20.850000381469727,-84.0,-27.150001525878903
1726865375.478753,9.679313659667969,-0.1555390208959579,0.4355092644691467,1.8899999856948853,-4.340000152587891,-0.1400000005960464,55.35363006591797,-9.110067367553713,47.21952438354492,9.815709114074709,-1.2419192790985107,0.5982270240783691,-0.7699999809265137,-1.5399999618530271,-1.1200000047683716,19.650001525878903,-84.45000457763672,-25.650001525878903
1726865375.4769208,9.688884735107422,-0.2010042816400528,0.5934411883354187,1.399999976158142,-4.199999809265137,-0.2100000083446502,60.05274963378906,-11.453934669494627,50.97813415527344,9.806137084960938,-1.2347406148910522,0.6652284264564514,-1.1200000047683716,-1.680000066757202,-1.190000057220459,20.25,-84.60000610351562,-27.000001907348636
1726865375.5025618,9.703242301940918,-0.2991135120391845,0.5384043455123901,1.75,-4.130000114440918,-0.4200000166893005,57.18423843383789,-8.594375610351562,49.822021484375,9.763065338134766,-1.179703712463379,0.7441943883895874,-1.190000057220459,-2.0999999046325684,-0.9800000190734864,20.850000381469727,-83.25,-27.30000114440918
1726865375.528203,9.688884735107422,-0.3038993179798126,0.5312256217002869,2.799999952316284,-4.269999980926514,-0.5600000023841858,59.205360412597656,-9.717278480529783,51.1514778137207,9.839637756347656,-1.2443121671676636,0.7992312908172607,-1.399999976158142,-2.0299999713897705,-0.9800000190734864,19.5,-85.80000305175781,-28.650001525878903
1726865375.553844,9.681706428527832,-0.2225404530763626,0.4761887192726135,2.450000047683716,-4.269999980926514,-0.3499999940395355,59.02044296264648,-7.0371503829956055,51.06706619262695,9.784601211547852,-1.277812957763672,0.7609447836875916,-1.399999976158142,-1.8899999856948853,-1.190000057220459,21.0,-85.05000305175781,-26.400001525878903
1726865375.5670028,9.629061698913574,-0.3254354894161224,0.4714028835296631,1.680000066757202,-4.130000114440918,-0.3499999940395355,60.172271728515625,-9.348065376281738,51.490821838378906,9.751100540161133,-1.3208853006362915,0.6819788217544556,-1.0499999523162842,-2.1700000762939453,-1.190000057220459,20.400001525878903,-84.9000015258789,-25.650001525878903
1726865375.5926435,9.75588607788086,-0.3469716608524322,0.4067943692207336,2.240000009536743,-4.130000114440918,-0.5600000023841858,57.61290740966797,-7.061775207519531,51.0721321105957,9.796566009521484,-1.2849916219711304,0.6915504336357117,-0.4200000166893005,-2.309999942779541,-1.0499999523162842,21.75,-84.1500015258789,-26.250001907348636
1726865375.618285,9.688884735107422,-0.3062922358512878,0.5049036145210266,3.640000104904175,-4.550000190734863,-0.3499999940395355,57.01212692260742,-7.231689453125,50.48529052734375,9.830066680908203,-1.2921704053878784,0.7418015003204346,0.0,-2.0299999713897705,-1.1200000047683716,20.25,-84.60000610351562,-25.80000114440918
1726865375.643926,9.758278846740724,-0.1603248417377472,0.6149773597717285,3.920000076293945,-4.340000152587891,-0.2800000011920929,56.98080062866211,-10.15834140777588,49.12559127807617,9.801351547241213,-1.2825987339019775,0.7202653288841248,0.3499999940395355,-1.8200000524520876,-1.5399999618530271,20.25,-84.0,-27.000001907348636
1726865375.641877,9.700849533081056,-0.1196454018354415,0.5623334050178528,2.380000114440918,-4.059999942779541,-0.4900000095367431,59.66657257080078,-8.457612037658691,52.212799072265625,9.743921279907228,-1.2036327123641968,0.7154794931411743,0.5600000023841858,-2.0299999713897705,-1.4700000286102295,22.05000114440918,-85.95000457763672,-25.80000114440918
1726865375.667518,9.72238540649414,-0.3350071310997009,0.4642241597175598,1.75,-4.480000019073486,-0.9100000262260436,55.33871841430664,-5.63358211517334,49.51811981201172,9.79417324066162,-1.2490980625152588,0.7441943883895874,0.2800000011920929,-2.450000047683716,-1.1200000047683716,20.700000762939453,-83.85000610351562,-25.950000762939453
1726865375.693159,9.71520709991455,-0.2440766245126724,0.3972227573394775,2.870000123977661,-4.480000019073486,-0.9100000262260436,58.30231857299805,-7.432771682739258,51.98305130004883,9.798958778381348,-1.2132043838500977,0.7130866050720215,0.0700000002980232,-2.450000047683716,-1.190000057220459,22.950000762939453,-83.85000610351562,-25.950000762939453
1726865375.7188,9.708027839660645,-0.2321120798587799,0.4546525478363037,3.5,-4.480000019073486,-1.1200000047683716,58.30231857299805,-7.432771682739258,51.98305130004883,9.815709114074709,-1.2108114957809448,0.6580497026443481,-0.3499999940395355,-2.0999999046325684,-1.5399999618530271,20.700000762939453,-83.70000457763672,-25.650001525878903
1726865375.7170548,9.724778175354004,-0.1986113786697387,0.4857603311538696,3.0799999237060547,-4.340000152587891,-1.190000057220459,56.62420272827149,-5.835655212402344,50.87554931640625,9.777422904968262,-1.2514909505844116,0.6963362693786621,-0.9800000190734864,-2.0299999713897705,-1.75,19.950000762939453,-85.20000457763672,-26.400001525878903
1726865375.7426958,9.703242301940918,-0.2392908036708831,0.5360113978385925,2.450000047683716,-4.480000019073486,-0.9800000190734864,56.872554779052734,-6.141937255859375,50.95977783203125,9.796566009521484,-1.3017419576644895,0.7609447836875916,-0.6299999952316284,-2.309999942779541,-1.6100000143051147,20.400001525878903,-84.60000610351562,-27.600000381469727
1726865375.768337,9.74870777130127,-0.2751844227313995,0.4785816073417663,2.380000114440918,-4.480000019073486,-0.8400000333786011,58.05528259277344,-5.8060736656188965,51.5721321105957,9.858781814575195,-1.2897775173187256,0.7848738431930542,0.2800000011920929,-2.1700000762939453,-1.3300000429153442,20.100000381469727,-84.0,-26.55000114440918
1726865375.793978,9.700849533081056,-0.2488624453544616,0.4809745252132416,3.009999990463257,-4.199999809265137,-0.6299999952316284,55.90478515625,-7.070895671844482,48.27824020385742,9.84203052520752,-1.2275618314743042,0.7011220455169678,0.5600000023841858,-1.8899999856948853,-1.399999976158142,21.150001525878903,-83.25,-26.55000114440918
1726865375.7917528,9.64581298828125,-0.2392908036708831,0.4642241597175598,3.220000028610229,-4.340000152587891,-0.7699999809265137,57.117408752441406,-9.648797035217283,49.35518646240234,9.782208442687988,-1.179703712463379,0.7370156645774841,0.2100000083446502,-1.8899999856948853,-1.4700000286102295,20.25,-84.9000015258789,-27.000001907348636
1726865375.8173938,9.6697416305542,-0.1938255578279495,0.5144752264022827,3.009999990463257,-3.990000009536743,-1.0499999523162842,58.04115295410156,-5.809047698974609,51.15114212036133,9.77263641357422,-1.2203831672668457,0.7441943883895874,-0.4900000095367431,-2.1700000762939453,-1.4700000286102295,21.150001525878903,-84.9000015258789,-25.500001907348636
1726865375.843035,9.727170944213867,-0.2560411691665649,0.4211518168449402,2.5199999809265137,-4.130000114440918,-0.9100000262260436,58.13273620605469,-7.949256420135498,50.77114486694336,9.820494651794434,-1.3256710767745972,0.6748000979423523,-0.4200000166893005,-2.240000009536743,-1.4700000286102295,19.350000381469727,-83.70000457763672,-27.150001525878903
1726865375.868676,9.743921279907228,-0.2249333560466766,0.4690099954605102,2.7300000190734863,-4.130000114440918,-0.8400000333786011,58.81743240356445,-8.321243286132812,51.54172897338867,9.853995323181152,-1.275420069694519,0.6724071502685547,0.2100000083446502,-2.0999999046325684,-1.399999976158142,21.30000114440918,-85.20000457763672,-26.850000381469727
1726865375.870389,9.753493309020996,-0.2345049977302551,0.44268798828125,2.7300000190734863,-4.619999885559082,-0.5600000023841858,56.89863586425781,-8.016151428222656,49.786251068115234,9.851602554321287,-1.318492412567139,0.7346227765083313,0.6299999952316284,-1.8899999856948853,-1.5399999618530271,20.100000381469727,-85.35000610351562,-26.850000381469727
1726865375.89603,9.672134399414062,-0.284756064414978,0.5120823383331299,2.5199999809265137,-4.199999809265137,-0.8400000333786011,57.47116088867188,-7.852184772491455,49.53110885620117,9.796566009521484,-1.237133502960205,0.7298369407653809,0.8400000333786011,-1.9600000381469729,-1.75,19.650001525878903,-83.25,-25.200000762939453
1726865375.9216712,9.753493309020996,-0.1770751923322677,0.4785816073417663,2.0999999046325684,-4.059999942779541,-0.7699999809265137,54.69247817993164,-8.733122825622559,47.15058898925781,9.820494651794434,-1.2802058458328247,0.7322298884391785,0.5600000023841858,-1.75,-1.8200000524520876,19.350000381469727,-85.05000305175781,-27.000001907348636
1726865375.947312,9.801351547241213,-0.2823631465435028,0.4642241597175598,2.380000114440918,-4.130000114440918,-0.9800000190734864,57.06560134887695,-9.65970230102539,47.811553955078125,9.822887420654297,-1.2706341743469238,0.648478090763092,1.1200000047683716,-1.8899999856948853,-1.8200000524520876,20.25,-84.1500015258789,-26.250001907348636
1726865375.9453888,9.743921279907228,-0.2703986167907715,0.4450809061527252,3.3600001335144043,-4.409999847412109,-0.9800000190734864,56.04949569702149,-7.879783630371094,49.11518478393555,9.798958778381348,-1.229954719543457,0.7441943883895874,1.1200000047683716,-2.0299999713897705,-1.8899999856948853,20.25,-84.45000457763672,-25.80000114440918
1726865375.9710298,9.708027839660645,-0.2010042816400528,0.4929390549659729,3.569999933242798,-4.199999809265137,-0.9800000190734864,56.32831954956055,-5.819159030914307,48.2169189453125,9.741528511047363,-1.1653462648391724,0.7633376717567444,1.3300000429153442,-2.0999999046325684,-1.8899999856948853,20.400001525878903,-84.0,-26.100000381469727
1726865375.996671,9.609918594360352,-0.2392908036708831,0.5312256217002869,3.220000028610229,-3.7799999713897705,-0.8400000333786011,58.03940200805664,-7.409336566925049,50.306732177734375,9.798958778381348,-1.2610626220703125,0.7130866050720215,0.6299999952316284,-2.0999999046325684,-1.680000066757202,20.400001525878903,-83.25,-27.30000114440918
1726865376.022312,9.815709114074709,-0.1794681102037429,0.4809745252132416,2.6600000858306885,-4.130000114440918,-0.9100000262260436,58.04750061035156,-8.72776985168457,50.91408157348633,9.82767391204834,-1.2538838386535645,0.6389064788818359,0.4200000166893005,-2.0299999713897705,-1.5399999618530271,21.600000381469727,-83.55000305175781,-26.100000381469727
1726865382.5728,9.691277503967283,-0.3230426013469696,0.3541503846645355,0.2100000083446502,-3.849999904632568,-0.2100000083446502,59.022193908691406,-5.436861515045166,51.91147613525391,9.760672569274902,-1.3160994052886963,0.6700142621994019,-2.450000047683716,-1.680000066757202,-1.190000057220459,20.850000381469727,-83.55000305175781,-27.30000114440918
1726865382.598441,9.703242301940918,-0.2703986167907715,0.3852581977844238,1.8899999856948853,-4.199999809265137,-0.4200000166893005,59.65540313720703,-10.05988311767578,51.08772659301758,9.727170944213867,-1.2610626220703125,0.7178724408149719,-2.450000047683716,-1.8200000524520876,-1.190000057220459,21.600000381469727,-82.80000305175781,-25.350000381469727
1726865382.624082,9.691277503967283,-0.2273262739181518,0.3541503846645355,1.399999976158142,-3.990000009536743,-0.2800000011920929,57.02450942993164,-8.829005241394043,50.06187057495117,9.801351547241213,-1.318492412567139,0.6867645978927612,-2.1700000762939453,-1.9600000381469729,-1.1200000047683716,20.400001525878903,-85.35000610351562,-28.200000762939453
1726865382.649723,9.729564666748049,-0.308685153722763,0.3134709596633911,1.1200000047683716,-4.340000152587891,-0.3499999940395355,55.277923583984375,-5.366596221923828,48.86492919921875,9.775029182434082,-1.3208853006362915,0.6365135312080383,-1.75,-1.75,-1.0499999523162842,19.350000381469727,-84.60000610351562,-27.30000114440918
1726865382.6624289,9.736742973327637,-0.3038993179798126,0.3804723918437958,1.2599999904632568,-4.269999980926514,-0.2100000083446502,55.277923583984375,-5.366596221923828,48.86492919921875,9.813316345214844,-1.3137065172195437,0.6365135312080383,-1.5399999618530271,-1.8200000524520876,-1.190000057220459,20.400001525878903,-84.45000457763672,-24.750001907348636
1726865382.6880698,9.66256332397461,-0.2943277060985565,0.4857603311538696,1.190000057220459,-3.849999904632568,-0.0700000002980232,58.44452667236328,-5.881692409515381,50.85519409179688,9.779815673828123,-1.3304568529129028,0.6269419193267822,-1.399999976158142,-2.0299999713897705,-1.190000057220459,20.700000762939453,-85.35000610351562,-27.750001907348636
1726865382.713711,9.64341926574707,-0.3350071310997009,0.4642241597175598,1.0499999523162842,-4.059999942779541,-0.2800000011920929,58.3798828125,-5.0559515953063965,52.40385818481445,9.820494651794434,-1.2873845100402832,0.6604426503181458,-1.399999976158142,-1.75,-0.9800000190734864,19.80000114440918,-83.70000457763672,-27.000001907348636
1726865382.739352,9.806137084960938,-0.3709007501602173,0.2991135120391845,2.240000009536743,-4.059999942779541,0.0,58.732200622558594,-9.099757194519045,51.684669494628906,9.81092357635498,-1.306527853012085,0.6532639265060425,-1.6100000143051147,-1.680000066757202,-0.9800000190734864,21.75,-84.30000305175781,-28.650001525878903
1726865382.7373078,9.856388092041016,-0.208183005452156,0.2703986167907715,2.1700000762939453,-3.7799999713897705,-0.4200000166893005,57.874961853027344,-7.644956588745117,50.40625381469727,9.638633728027344,-1.3113136291503906,0.7418015003204346,-1.399999976158142,-1.9600000381469729,-0.9100000262260436,21.150001525878903,-86.85000610351562,-24.0
1726865382.7629488,9.763065338134766,-0.3302213251590729,0.5001177787780762,1.75,-3.920000076293945,-0.2100000083446502,57.3983039855957,-10.228013038635254,49.25062942504883,9.775029182434082,-1.3519930839538574,0.6939433217048645,-0.6299999952316284,-2.380000114440918,-0.7699999809265137,21.0,-84.60000610351562,-26.100000381469727
1726865382.78859,9.66016960144043,-0.2488624453544616,0.2727915346622467,1.0499999523162842,-4.409999847412109,-0.3499999940395355,57.70274353027344,-10.80227279663086,49.84772491455078,10.081321716308594,-1.277812957763672,0.4857603311538696,-0.4900000095367431,-1.9600000381469729,-0.6299999952316284,20.100000381469727,-84.45000457763672,-27.150001525878903
1726865382.814231,9.73195743560791,-0.1244312226772308,0.3996156454086303,0.8400000333786011,-4.550000190734863,-0.2800000011920929,58.97245788574219,-8.087606430053711,51.16154861450195,9.770243644714355,-1.25866961479187,0.5647262930870056,-1.3300000429153442,-1.4700000286102295,-1.1200000047683716,21.75,-85.35000610351562,-27.150001525878903
1726865382.8124158,9.676919937133787,-0.2297191768884658,0.4977248907089233,0.2100000083446502,-4.550000190734863,-0.1400000005960464,59.180171966552734,-6.802521705627441,50.82721710205078,9.777422904968262,-1.2323477268218994,0.679585874080658,-1.9600000381469729,-1.4700000286102295,-1.6100000143051147,19.650001525878903,-84.30000305175781,-26.700000762939453
1726865382.8380568,9.693670272827148,-0.363722026348114,0.4929390549659729,-0.2800000011920929,-4.340000152587891,-0.3499999940395355,58.8340950012207,-10.197440147399902,50.08754348754883,9.81092357635498,-1.2562767267227173,0.6341206431388855,-2.7300000190734863,-1.3300000429153442,-1.8200000524520876,21.450000762939453,-85.05000305175781,-27.750001907348636
1726865382.863698,9.717599868774414,-0.3493645787239074,0.363722026348114,-0.1400000005960464,-4.269999980926514,-0.2800000011920929,59.76375579833984,-9.556285858154297,50.475345611572266,9.71520709991455,-1.318492412567139,0.6604426503181458,-2.5899999141693115,-1.2599999904632568,-1.5399999618530271,21.75,-84.45000457763672,-26.55000114440918
1726865382.889339,9.770243644714355,-0.363722026348114,0.308685153722763,1.190000057220459,-3.7100000381469727,-0.5600000023841858,56.179649353027344,-8.971518516540527,48.36003875732422,9.71520709991455,-1.2921704053878784,0.7609447836875916,-2.240000009536743,-1.75,-1.0499999523162842,20.850000381469727,-84.75,-27.000001907348636
1726865382.902298,9.703242301940918,-0.4187589287757873,0.3972227573394775,3.0799999237060547,-3.640000104904175,-0.5600000023841858,58.72103118896485,-10.702028274536133,50.559600830078125,9.815709114074709,-1.3831008672714231,0.7872667908668518,-1.8899999856948853,-2.240000009536743,-0.8400000333786011,20.850000381469727,-84.45000457763672,-26.700000762939453
1726865382.927939,9.693670272827148,-0.3493645787239074,0.363722026348114,3.569999933242798,-3.849999904632568,-0.9800000190734864,56.84211730957031,-8.028047561645508,48.10229110717773,9.86117458343506,-1.3711363077163696,0.6030128598213196,-1.190000057220459,-1.8200000524520876,-0.9800000190734864,19.200000762939453,-85.95000457763672,-25.80000114440918
1726865382.95358,9.679313659667969,-0.3565433025360107,0.3278284072875976,3.849999904632568,-4.130000114440918,-0.699999988079071,57.50105667114258,-10.765950202941896,49.995697021484375,9.753493309020996,-1.359171748161316,0.5958341360092163,-0.4200000166893005,-1.9600000381469729,-1.2599999904632568,20.25,-84.0,-26.400001525878903
1726865382.979221,9.743921279907228,-0.3445787727832794,0.3924369215965271,4.619999885559082,-4.059999942779541,-0.699999988079071,57.80463790893555,-11.89995574951172,48.2505989074707,9.7391357421875,-1.3448143005371094,0.6412993669509888,0.4200000166893005,-2.240000009536743,-1.399999976158142,19.5,-84.60000610351562,-27.30000114440918
1726865382.977142,9.70563507080078,-0.2153617292642593,0.4331163763999939,4.619999885559082,-3.5,-0.8400000333786011,57.51311492919922,-8.123135566711426,49.62298583984375,9.81092357635498,-1.3711363077163696,0.7346227765083313,0.699999988079071,-2.309999942779541,-1.680000066757202,19.950000762939453,-84.30000305175781,-26.850000381469727
1726865383.0027828,9.688884735107422,-0.3182567656040191,0.4139730930328369,3.849999904632568,-3.640000104904175,-0.7699999809265137,56.67853927612305,-7.703920841217041,50.54400253295898,9.760672569274902,-1.433351993560791,0.6532639265060425,1.680000066757202,-1.9600000381469729,-1.8899999856948853,20.55000114440918,-84.9000015258789,-27.000001907348636
1726865383.028424,9.710420608520508,-0.4331163763999939,0.4402951002120971,3.7100000381469727,-3.849999904632568,-0.6299999952316284,59.43191909790039,-8.428228378295898,51.37846374511719,9.846817016601562,-1.3160994052886963,0.6412993669509888,2.1700000762939453,-1.8899999856948853,-1.680000066757202,20.400001525878903,-84.9000015258789,-27.450000762939453
1726865383.054065,9.657776832580566,-0.2368979007005691,0.4546525478363037,6.300000190734863,-2.6600000858306885,-0.1400000005960464,57.6033821105957,-11.583760261535645,49.569671630859375,9.782208442687988,-1.3232781887054443,0.7035149931907654,2.240000009536743,-2.240000009536743,-1.4700000286102295,20.100000381469727,-85.80000305175781,-27.30000114440918
1726865383.052744,9.6697416305542,-0.205790102481842,0.4283305406570434,5.740000247955322,-2.380000114440918,0.2100000083446502,57.33454895019531,-8.361729621887207,49.301513671875,9.81810188293457,-1.366350531578064,0.7250511646270752,2.380000114440918,-2.309999942779541,-1.4700000286102295,21.600000381469727,-84.30000305175781,-26.250001907348636
1726865383.0783849,9.65299129486084,-0.3134709596633911,0.5240468978881836,4.409999847412109,-1.6100000143051147,0.7699999809265137,59.73122024536133,-9.28335189819336,50.66413116455078,9.803744316101074,-1.387886643409729,0.7226582169532776,3.150000095367432,-2.0299999713897705,-1.6100000143051147,20.100000381469727,-85.6500015258789,-27.750001907348636
1726865383.104026,9.688884735107422,-0.3469716608524322,0.4307234585285187,3.5,-1.3300000429153442,1.3300000429153442,56.947052001953125,-6.685822010040283,50.86286544799805,9.719992637634276,-1.4764243364334106,0.7298369407653809,4.480000019073486,-1.9600000381469729,-1.1200000047683716,18.30000114440918,-84.75,-26.250001907348636
1726865383.129667,9.729564666748049,-0.2488624453544616,0.3996156454086303,3.3600001335144043,-0.7699999809265137,1.5399999618530271,54.70660781860352,-8.730149269104004,47.57157897949219,9.770243644714355,-1.4405306577682495,0.7944455146789551,5.53000020980835,-2.240000009536743,-0.4200000166893005,20.700000762939453,-83.85000610351562,-27.30000114440918
1726865383.1274369,9.99278450012207,-0.0981092303991317,0.308685153722763,0.2800000011920929,-0.9100000262260436,2.240000009536743,59.23276138305664,-10.271076202392578,49.65126419067383,9.77263641357422,-1.3639576435089111,0.7394086122512817,6.510000228881836,-2.309999942779541,0.5600000023841858,21.0,-84.75,-26.55000114440918
1726865383.1530778,9.894675254821776,-0.5790837407112122,0.5599405169487,-0.5600000023841858,-0.9100000262260436,2.870000123977661,58.065914154052734,-9.003677368164062,50.30430603027344,9.712814331054688,-1.1462029218673706,0.7035149931907654,5.25,-2.0299999713897705,0.699999988079071,20.55000114440918,-85.95000457763672,-28.350000381469727
1726865383.178719,9.820494651794434,-0.5551546812057495,0.6221560835838318,2.6600000858306885,-0.9800000190734864,3.640000104904175,56.403568267822266,-10.3233003616333,49.24039840698242,9.849209785461426,-1.3376356363296509,0.6700142621994019,0.1400000005960464,-1.2599999904632568,1.680000066757202,20.100000381469727,-84.75,-26.400001525878903
1726865383.20436,9.892282485961914,-0.4833674430847168,0.4067943692207336,4.690000057220459,-1.8899999856948853,4.199999809265137,56.83091735839844,-10.11111545562744,50.81719970703125,10.18182373046875,-1.5649619102478027,0.7681235074996948,-0.9100000262260436,-0.3499999940395355,2.5899999141693115,20.25,-85.5,-27.000001907348636
1726865383.2605898,9.676919937133787,-0.4474738240242004,0.3326142132282257,5.039999961853027,-2.5899999141693115,4.269999980926514,56.51202774047852,-5.299700736999512,49.84981536865234,9.868352890014648,-1.844932198524475,0.6173703074455261,1.0499999523162842,-0.3499999940395355,2.7300000190734863,20.100000381469727,-85.35000610351562,-26.700000762939453
1726865383.286231,9.58359718322754,-0.368507832288742,0.5025107264518738,3.7100000381469727,-2.240000009536743,4.550000190734863,54.74210739135742,-10.60237979888916,46.67871475219727,9.954497337341309,-1.8162171840667725,0.806410014629364,4.96999979019165,-0.2100000083446502,4.059999942779541,21.30000114440918,-83.85000610351562,-26.100000381469727
1726865383.311872,9.595561027526855,-0.5958341360092163,0.4546525478363037,2.0299999713897705,-2.6600000858306885,4.130000114440918,54.74210739135742,-10.60237979888916,46.67871475219727,9.918603897094728,-1.1820966005325315,0.4642241597175598,3.430000066757202,-0.0700000002980232,4.690000057220459,21.600000381469727,-84.0,-26.850000381469727
1726865383.3106709,9.590775489807127,-0.6724071502685547,0.3326142132282257,4.829999923706055,-3.849999904632568,3.7100000381469727,56.12531280517578,-7.10325288772583,48.69158172607422,9.789386749267578,-1.7324655055999756,0.5982270240783691,0.0,-0.1400000005960464,5.320000171661377,20.400001525878903,-84.60000610351562,-27.900001525878903
1726865383.292436,9.617097854614258,-0.3350071310997009,0.3541503846645355,9.59000015258789,-4.900000095367432,3.009999990463257,59.590328216552734,-9.514015197753906,51.46530151367188,9.655384063720703,-1.7683590650558472,0.758551836013794,1.1200000047683716,-1.1200000047683716,5.039999961853027,20.700000762939453,-84.75,-25.650001525878903
1726865383.3180768,9.585989952087402,-0.0023929080925881,0.5431901216506958,10.43000030517578,-3.920000076293945,1.8899999856948853,58.39479064941406,-8.532437324523926,50.10526657104492,9.73195743560791,-1.3448143005371094,0.6724071502685547,6.300000190734863,-0.9100000262260436,3.849999904632568,21.450000762939453,-85.80000305175781,-27.900001525878903
1726865383.343718,9.54052448272705,-0.033500712364912,0.6724071502685547,6.789999961853027,-3.220000028610229,0.6299999952316284,57.233543395996094,-6.223504066467285,49.400856018066406,9.712814331054688,-0.7609447836875916,0.4761887192726135,7.28000020980835,-0.2800000011920929,1.9600000381469729,20.700000762939453,-83.25,-28.80000114440918
1726865383.369359,9.617097854614258,-0.1172524988651275,0.6125844717025757,4.829999923706055,-2.870000123977661,-0.4900000095367431,57.9952392578125,-9.499343872070312,52.039329528808594,9.54052448272705,-0.8686256408691406,0.5551546812057495,6.650000095367432,-0.6299999952316284,0.2100000083446502,21.30000114440918,-85.05000305175781,-27.30000114440918
1726865383.367256,9.727170944213867,-0.0933234170079231,0.521653950214386,2.799999952316284,-2.0299999713897705,-1.3300000429153442,58.576751708984375,-9.61326789855957,50.89375305175781,9.569239616394045,-1.0672370195388794,0.758551836013794,7.769999980926514,-1.5399999618530271,-0.8400000333786011,19.80000114440918,-84.75,-27.900001525878903
1726865383.392897,9.674527168273926,-0.1411815732717514,0.5479759573936462,-0.5600000023841858,-1.1200000047683716,-1.5399999618530271,58.29378509521485,-6.394211292266846,50.20460891723633,9.641026496887209,-0.7633376717567444,0.8016242384910583,5.460000038146973,-2.5899999141693115,-1.1200000047683716,19.950000762939453,-84.60000610351562,-26.400001525878903
1726865383.418538,9.765458106994627,-0.3254354894161224,0.6149773597717285,-3.569999933242798,-0.4900000095367431,-1.2599999904632568,59.54793930053711,-9.522936820983888,50.20233154296875,9.789386749267578,-0.9284483194351196,0.746587336063385,0.1400000005960464,-3.7799999713897705,-0.8400000333786011,20.55000114440918,-85.95000457763672,-26.55000114440918
1726865383.444179,9.746315002441406,-0.466617077589035,0.6173703074455261,-4.340000152587891,0.2800000011920929,-0.9800000190734864,54.85910034179688,-6.617341041564941,49.06657409667969,9.74870777130127,-1.3160994052886963,0.7848738431930542,-5.460000038146973,-4.269999980926514,-0.699999988079071,19.80000114440918,-84.60000610351562,-25.350000381469727
1726865383.4423418,9.719992637634276,-0.4761887192726135,0.5312256217002869,-3.3600001335144043,0.6299999952316284,-0.4200000166893005,60.02064514160156,-10.901127815246582,52.33802032470703,9.763065338134766,-1.5649619102478027,0.7370156645774841,-7.139999866485596,-4.550000190734863,-0.0700000002980232,20.100000381469727,-84.1500015258789,-27.150001525878903
1726865383.4679828,9.7391357421875,-0.5503688454627991,0.5264397859573364,-4.760000228881836,0.9100000262260436,1.3300000429153442,57.64884185791016,-8.654133796691895,51.350364685058594,9.698456764221191,-1.541032791137695,0.5360113978385925,-5.670000076293945,-6.860000133514404,0.699999988079071,19.650001525878903,-83.25,-26.700000762939453
1726865383.493624,9.777422904968262,-0.1316099464893341,0.5575475692749023,-6.579999923706055,2.380000114440918,2.6600000858306885,58.16866683959961,-9.541614532470703,51.04937362670898,9.789386749267578,-2.0770442485809326,0.8734114766120911,-2.870000123977661,-6.789999961853027,2.240000009536743,20.850000381469727,-85.6500015258789,-26.700000762939453
1726865383.519265,9.71520709991455,0.1483602970838546,0.8853759765625,-12.039999961853027,6.720000267028809,3.0799999237060547,59.8326530456543,-11.141704559326172,51.73588562011719,9.595561027526855,-2.1177237033843994,0.6269419193267822,1.0499999523162842,-6.650000095367432,4.829999923706055,21.900001525878903,-84.1500015258789,-25.950000762939453
1726865383.577129,9.746315002441406,-0.0358936227858066,1.0528795719146729,-18.6200008392334,10.359999656677246,5.599999904632568,57.14445877075195,-6.443263053894043,51.74565505981445,9.837244987487791,-2.0052568912506104,0.4833674430847168,1.8899999856948853,-6.789999961853027,8.1899995803833,19.80000114440918,-85.35000610351562,-26.55000114440918
1726865383.60277,9.942533493041992,0.181861013174057,1.0576653480529783,-26.809999465942383,14.210000038146973,8.609999656677246,54.95496368408203,-9.036431312561035,47.65580749511719,9.853995323181152,-2.699200391769409,0.8375178575515747,0.3499999940395355,-6.440000057220459,12.390000343322754,22.200000762939453,-85.80000305175781,-27.150001525878903
1726865383.610499,10.064571380615234,0.3230426013469696,1.2658483982086182,-38.56999969482422,18.690000534057617,10.850000381469728,57.27846145629883,-8.093751907348633,48.78864669799805,9.712814331054688,-2.584340810775757,1.1462029218673706,-1.680000066757202,-6.019999980926514,21.13999938964844,21.0,-84.9000015258789,-25.80000114440918
1726865383.63614,9.93056869506836,-0.0574297942221164,1.2203831672668457,-50.04999923706055,21.280000686645508,11.550000190734863,56.35515213012695,-11.653629302978516,48.16378784179688,9.760672569274902,-1.9597917795181277,1.0313433408737185,-7.840000152587891,-7.559999942779541,30.729999542236328,19.5,-86.70000457763672,-26.400001525878903
1726865383.607024,9.870745658874512,-0.6054057478904724,1.2706341743469238,-54.459999084472656,22.96000099182129,12.039999961853027,56.4155158996582,-12.200488090515137,47.6458854675293,9.932961463928224,-2.278048515319824,0.8542681932449341,-18.1299991607666,-10.779999732971191,39.27000045776367,21.0,-86.70000457763672,-26.100000381469727
1726865383.632665,9.590775489807127,-1.0074143409729004,1.2921704053878784,-50.61000061035156,23.170000076293945,12.31999969482422,57.17382049560547,-14.156904220581056,49.817344665527344,10.138751983642578,-3.244783401489258,0.8351249098777771,-24.36000061035156,-12.880000114440918,49.77000045776367,21.600000381469727,-85.5,-25.950000762939453
1726865383.658306,9.547703742980955,-1.3687434196472168,1.1079164743423462,-41.790000915527344,21.559999465942383,13.230000495910645,59.29562759399414,-13.177902221679688,51.09816360473633,10.117215156555176,-4.077515602111816,1.0050214529037476,-17.360000610351562,-12.880000114440918,59.77999877929688,21.0,-87.1500015258789,-27.000001907348636
1726865383.683947,10.054999351501465,-0.5072965025901794,1.0457007884979248,-28.13999938964844,21.06999969482422,13.09000015258789,54.87137222290039,-12.734658241271973,47.42135620117188,9.86117458343506,-3.73293662071228,0.7872667908668518,-8.260000228881836,-13.020000457763672,69.93000030517578,21.150001525878903,-87.9000015258789,-26.100000381469727
1726865383.6823218,9.92099666595459,-0.2177546322345733,1.2849916219711304,-25.1299991607666,21.6299991607666,11.899999618530272,58.5059928894043,-14.14813995361328,47.56700134277344,9.832459449768066,-3.601326704025269,0.5264397859573364,-8.050000190734863,-12.8100004196167,78.19000244140625,21.75,-90.3000030517578,-26.250001907348636
1726865383.7079628,9.612311363220217,-0.5575475692749023,0.952377438545227,-28.700000762939453,17.219999313354492,11.34000015258789,53.395694732666016,-15.13412094116211,47.2862663269043,9.940139770507812,-4.230661392211914,0.1890397369861602,-14.140000343322754,-12.8100004196167,84.84000396728516,21.0,-91.6500015258789,-25.500001907348636
1726865383.733604,9.535738945007324,-0.5025107264518738,0.7513731122016907,-35.97999954223633,13.649999618530272,10.710000038146973,55.17024230957031,-13.869654655456545,45.535926818847656,10.39718532562256,-2.6369848251342773,-0.6412993669509888,-29.75,-14.279999732971191,97.51000213623048,18.900001525878903,-91.6500015258789,-23.55000114440918
1726865383.759245,9.262947082519531,-1.043307900428772,0.9093050956726074,-44.79999923706055,13.789999961853027,11.130000114440918,55.64722442626953,-15.526727676391602,46.640846252441406,10.110036849975586,-4.776244640350342,-0.0765730589628219,-40.67000198364258,-16.65999984741211,106.61000061035156,21.0,-93.3000030517578,-24.0
1726865383.757273,9.21030330657959,-1.7922881841659546,1.2514909505844116,-42.70000076293945,13.720000267028809,12.670000076293944,54.47434616088867,-15.580735206604004,47.48024368286133,9.516595840454102,-5.032285690307617,-0.1340028494596481,-33.810001373291016,-15.539999961853027,112.55999755859376,20.700000762939453,-94.6500015258789,-20.700000762939453
1726865383.782914,9.341913223266602,-2.136866807937622,1.5386399030685425,-29.61000061035156,14.980000495910645,14.140000343322754,54.63232803344727,-16.946395874023438,46.3959846496582,9.21987533569336,-5.396007537841797,-0.0909305065870285,-20.51000022888184,-13.789999961853027,115.36000061035156,19.200000762939453,-97.20000457763672,-19.350000381469727
1726865383.8085551,9.394556999206545,-1.8856115341186523,1.5027462244033811,-15.470000267028809,13.15999984741211,14.770000457763672,55.99744415283203,-17.411489486694336,48.96792602539063,8.894439697265625,-5.563511371612549,-0.1675035655498504,-7.28000020980835,-14.06999969482422,116.4800033569336,19.650001525878903,-98.4000015258789,-19.350000381469727
1726865383.834196,9.341913223266602,-1.8856115341186523,1.3759222030639648,-8.539999961853027,10.220000267028809,15.960000038146973,50.614837646484375,-17.895221710205078,42.89023971557617,8.726935386657715,-5.635298728942871,-0.5647262930870056,6.019999980926514,-16.309999465942383,116.27000427246094,19.5,-98.70000457763672,-17.55000114440918
1726865383.886945,9.265339851379396,-1.7540016174316406,1.3472073078155518,-6.230000019073486,8.119999885559082,16.59000015258789,51.88147735595703,-18.101261138916016,43.68634796142578,8.834616661071777,-6.1665239334106445,-0.2775773406028747,12.529999732971191,-18.059999465942383,117.25,18.75,-99.75000762939452,-17.400001525878906
1726865383.912586,9.4950590133667,-1.672642707824707,1.32806396484375,-6.019999980926514,6.230000019073486,17.010000228881836,51.98423385620117,-18.639196395874023,44.43141555786133,8.458930015563965,-6.080379486083984,-0.2919347882270813,17.989999771118164,-16.3799991607666,116.62000274658205,17.100000381469727,-100.20000457763672,-13.950000762939451
1726865383.9107258,9.39934253692627,-1.6367491483688354,1.462066888809204,-6.650000095367432,3.920000076293945,16.8700008392334,53.35494613647461,-18.062753677368164,45.645904541015625,8.04734992980957,-6.085165500640869,-0.2321120798587799,15.75,-14.770000457763672,115.22000122070312,16.650001525878906,-102.1500015258789,-13.050000190734863
1726865383.962008,9.485487937927246,-1.6343562602996826,1.5793193578720093,-8.050000190734863,2.380000114440918,16.729999542236328,52.66554260253906,-17.69175910949707,44.7349853515625,7.891810894012451,-6.147380828857422,-0.4785816073417663,8.470000267028809,-15.68000030517578,114.37999725341795,13.500000953674316,-103.35000610351562,-10.800000190734863
1726865383.9220428,9.451987266540527,-1.6391420364379885,1.514710783958435,-8.960000038146973,1.4700000286102295,16.450000762939453,53.153690338134766,-17.74656105041504,46.9649772644043,7.810451984405518,-6.685785293579102,-0.4690099954605102,4.199999809265137,-17.639999389648438,113.47000122070312,13.500000953674316,-104.5500030517578,-9.90000057220459
1726865383.9476838,9.538131713867188,-1.9765421152114868,1.7731448411941528,-7.28000020980835,2.5899999141693115,16.65999984741211,52.81792449951172,-20.098953247070312,45.008182525634766,7.697985172271728,-7.391693115234375,-0.4115802049636841,7.210000038146973,-17.850000381469727,112.20999908447266,13.050000190734863,-105.1500015258789,-8.100000381469727
1726865383.973325,9.440022468566896,-1.916719436645508,1.955005884170532,-4.409999847412109,2.1700000762939453,17.850000381469727,53.74758529663086,-19.45779800415039,45.39598083496094,7.463480472564697,-7.942061901092529,0.0382865294814109,19.670000076293945,-15.470000267028809,110.38999938964844,12.450000762939451,-107.85000610351562,-5.850000381469727
1726865383.998966,9.57402515411377,-1.7540016174316406,1.9143264293670652,-1.3300000429153442,1.6100000143051147,18.549999237060547,51.6571044921875,-17.510147094726562,45.4748649597168,7.348620891571045,-7.563982486724853,0.0,32.7599983215332,-12.529999732971191,109.4800033569336,10.800000190734863,-108.00000762939452,-4.200000286102295
1726865383.996368,9.418486595153809,-1.7133221626281738,1.837753415107727,-1.9600000381469729,1.1200000047683716,18.200000762939453,50.45553970336914,-17.8499755859375,44.30118942260742,6.905932903289795,-7.252904415130615,-0.1363957673311233,33.529998779296875,-9.59000015258789,108.29000091552734,9.75,-107.70000457763672,-2.400000095367432
1726865384.022009,9.44480800628662,-1.8521108627319336,1.837753415107727,-4.409999847412109,2.450000047683716,18.270000457763672,49.68649673461914,-17.215959548950195,42.17575454711914,6.685785293579102,-7.623805046081543,-0.1124666780233383,25.6200008392334,-9.239999771118164,107.30999755859376,8.40000057220459,-108.1500015258789,-1.2000000476837158
1726865384.04765,9.351485252380373,-2.242154836654663,1.876039981842041,-6.369999885559082,3.150000095367432,18.270000457763672,54.58641052246094,-20.63669204711914,47.28417205810547,6.422565460205078,-7.635769844055176,-0.0981092303991317,14.84000015258789,-9.3100004196167,107.23999786376952,7.500000476837158,-109.6500015258789,0.3000000119209289
1726865384.073291,9.418486595153809,-2.325906753540039,2.0626866817474365,-3.640000104904175,4.760000228881836,17.989999771118164,52.26555633544922,-18.93853759765625,45.497955322265625,6.006199359893799,-8.123923301696777,0.1148595884442329,8.050000190734863,-9.520000457763672,106.4000015258789,5.400000095367432,-109.6500015258789,1.8000000715255735
1726865384.071981,9.377806663513184,-2.249333620071411,2.110544919967652,-1.75,5.599999904632568,18.76000022888184,51.54568099975586,-20.9344482421875,45.56953048706055,5.508474349975586,-8.41107177734375,0.205790102481842,10.850000381469728,-9.170000076293944,103.80999755859376,4.650000095367432,-111.00000762939452,3.750000238418579
